73CSV  	
// AQ6373 OPTICAL SPECTRUM ANALYZER //                  
35
"CTRWL", 775.000000
"SPAN", 850.000000
"START WL", 350.000000
"STOP WL",1200.000000
"WLFREQ", 0
"REFL",-35.9
"LSCL", 5.0
"RESLN",0.500
"AVG",   1
"SMPLAUTO",      1
"SMPL",       8501
"SMPLINTVL",0.1000
"HIGH1"
"MEAS"
"LSUNT",0
"NMSKV","OFF"
"RESCOR",0
"SMOOTH",0
"CHGPT",       1002
"RESCAL0_0",       9913
"RESCAL0_1",       -683
"RESCAL0_2",     431913
"RESCAL1_0",      10163
"RESCAL1_1",       3144
"RESCAL1_2",   -1990641
"CORESIZE", 0









"[TRACE DATA]"
 350.0000, -60.849
 350.1000, -59.840
 350.2000, -60.393
 350.3000, -60.107
 350.4000, -61.203
 350.5000, -60.616
 350.6000, -60.570
 350.7000, -60.597
 350.8000, -60.905
 350.9000, -60.284
 351.0000, -59.827
 351.1000, -60.141
 351.2000, -62.127
 351.3000, -60.123
 351.4000, -60.995
 351.5000, -59.576
 351.6000, -60.252
 351.7000, -60.258
 351.8000, -60.066
 351.9000, -59.394
 352.0000, -61.858
 352.1000, -60.556
 352.2000, -60.079
 352.3000, -59.948
 352.4000, -60.169
 352.5000, -60.445
 352.6000, -60.233
 352.7000, -60.462
 352.8000, -59.562
 352.9000, -60.554
 353.0000, -62.119
 353.1000, -60.458
 353.2000, -60.223
 353.3000, -60.988
 353.4000, -60.322
 353.5000, -60.138
 353.6000, -60.263
 353.7000, -60.158
 353.8000, -59.871
 353.9000, -60.378
 354.0000, -59.634
 354.1000, -61.693
 354.2000, -59.859
 354.3000, -60.476
 354.4000, -60.885
 354.5000, -60.758
 354.6000, -61.585
 354.7000, -59.898
 354.8000, -60.943
 354.9000, -61.498
 355.0000, -59.285
 355.1000, -61.838
 355.2000, -60.728
 355.3000, -60.356
 355.4000, -59.875
 355.5000, -60.934
 355.6000, -61.198
 355.7000, -61.273
 355.8000, -59.477
 355.9000, -61.128
 356.0000, -60.321
 356.1000, -61.443
 356.2000, -60.789
 356.3000, -60.481
 356.4000, -61.201
 356.5000, -60.965
 356.6000, -60.456
 356.7000, -61.001
 356.8000, -60.698
 356.9000, -60.590
 357.0000, -61.506
 357.1000, -60.051
 357.2000, -61.137
 357.3000, -61.125
 357.4000, -60.720
 357.5000, -60.781
 357.6000, -61.147
 357.7000, -60.417
 357.8000, -60.240
 357.9000, -59.934
 358.0000, -62.432
 358.1000, -60.901
 358.2000, -60.195
 358.3000, -59.941
 358.4000, -60.623
 358.5000, -61.428
 358.6000, -60.523
 358.7000, -60.542
 358.8000, -61.072
 358.9000, -60.158
 359.0000, -61.498
 359.1000, -61.566
 359.2000, -60.203
 359.3000, -62.710
 359.4000, -60.800
 359.5000, -60.731
 359.6000, -62.284
 359.7000, -60.465
 359.8000, -60.811
 359.9000, -61.022
 360.0000, -60.308
 360.1000, -61.129
 360.2000, -60.519
 360.3000, -59.758
 360.4000, -62.151
 360.5000, -60.129
 360.6000, -60.650
 360.7000, -62.098
 360.8000, -60.252
 360.9000, -61.058
 361.0000, -61.091
 361.1000, -61.228
 361.2000, -60.965
 361.3000, -61.226
 361.4000, -61.610
 361.5000, -60.421
 361.6000, -61.191
 361.7000, -62.068
 361.8000, -62.035
 361.9000, -61.708
 362.0000, -60.376
 362.1000, -60.843
 362.2000, -60.974
 362.3000, -61.374
 362.4000, -61.275
 362.5000, -60.331
 362.6000, -60.829
 362.7000, -61.160
 362.8000, -61.224
 362.9000, -60.610
 363.0000, -62.259
 363.1000, -60.398
 363.2000, -61.002
 363.3000, -61.719
 363.4000, -60.211
 363.5000, -61.568
 363.6000, -61.263
 363.7000, -60.576
 363.8000, -60.896
 363.9000, -60.356
 364.0000, -60.713
 364.1000, -62.622
 364.2000, -61.268
 364.3000, -60.840
 364.4000, -61.178
 364.5000, -60.123
 364.6000, -62.479
 364.7000, -60.111
 364.8000, -61.798
 364.9000, -61.711
 365.0000, -60.194
 365.1000, -61.765
 365.2000, -61.145
 365.3000, -61.350
 365.4000, -60.815
 365.5000, -60.932
 365.6000, -61.258
 365.7000, -60.407
 365.8000, -61.079
 365.9000, -61.929
 366.0000, -61.255
 366.1000, -60.750
 366.2000, -61.434
 366.3000, -60.523
 366.4000, -61.854
 366.5000, -59.889
 366.6000, -61.724
 366.7000, -61.785
 366.8000, -61.028
 366.9000, -61.873
 367.0000, -61.258
 367.1000, -60.535
 367.2000, -62.241
 367.3000, -60.438
 367.4000, -60.367
 367.5000, -61.224
 367.6000, -59.652
 367.7000, -62.034
 367.8000, -62.033
 367.9000, -61.690
 368.0000, -61.523
 368.1000, -60.761
 368.2000, -61.470
 368.3000, -62.775
 368.4000, -60.459
 368.5000, -62.500
 368.6000, -60.455
 368.7000, -60.864
 368.8000, -61.867
 368.9000, -61.394
 369.0000, -62.063
 369.1000, -60.418
 369.2000, -62.077
 369.3000, -60.807
 369.4000, -61.224
 369.5000, -62.551
 369.6000, -62.894
 369.7000, -61.202
 369.8000, -63.667
 369.9000, -60.360
 370.0000, -62.120
 370.1000, -62.251
 370.2000, -61.158
 370.3000, -62.175
 370.4000, -61.188
 370.5000, -62.031
 370.6000, -61.015
 370.7000, -61.602
 370.8000, -61.784
 370.9000, -61.654
 371.0000, -60.301
 371.1000, -62.885
 371.2000, -61.185
 371.3000, -61.895
 371.4000, -61.613
 371.5000, -61.987
 371.6000, -62.081
 371.7000, -61.169
 371.8000, -61.895
 371.9000, -61.256
 372.0000, -61.235
 372.1000, -61.744
 372.2000, -60.937
 372.3000, -60.800
 372.4000, -63.246
 372.5000, -61.656
 372.6000, -61.082
 372.7000, -61.693
 372.8000, -61.222
 372.9000, -61.465
 373.0000, -61.288
 373.1000, -62.342
 373.2000, -61.796
 373.3000, -60.806
 373.4000, -64.305
 373.5000, -61.206
 373.6000, -61.004
 373.7000, -61.652
 373.8000, -61.734
 373.9000, -61.637
 374.0000, -62.116
 374.1000, -61.602
 374.2000, -63.207
 374.3000, -61.732
 374.4000, -60.776
 374.5000, -62.386
 374.6000, -61.394
 374.7000, -63.475
 374.8000, -61.450
 374.9000, -61.532
 375.0000, -62.360
 375.1000, -61.598
 375.2000, -61.563
 375.3000, -62.651
 375.4000, -61.209
 375.5000, -63.254
 375.6000, -63.104
 375.7000, -61.973
 375.8000, -63.097
 375.9000, -62.411
 376.0000, -62.034
 376.1000, -61.631
 376.2000, -61.373
 376.3000, -62.209
 376.4000, -61.299
 376.5000, -63.497
 376.6000, -62.356
 376.7000, -61.789
 376.8000, -63.927
 376.9000, -60.392
 377.0000, -62.522
 377.1000, -62.914
 377.2000, -61.420
 377.3000, -62.586
 377.4000, -62.156
 377.5000, -61.905
 377.6000, -62.289
 377.7000, -62.321
 377.8000, -61.921
 377.9000, -62.498
 378.0000, -61.604
 378.1000, -62.701
 378.2000, -61.541
 378.3000, -63.618
 378.4000, -62.234
 378.5000, -61.368
 378.6000, -63.751
 378.7000, -62.334
 378.8000, -61.744
 378.9000, -63.806
 379.0000, -61.262
 379.1000, -62.634
 379.2000, -61.939
 379.3000, -63.583
 379.4000, -63.271
 379.5000, -62.179
 379.6000, -63.243
 379.7000, -63.244
 379.8000, -61.592
 379.9000, -63.483
 380.0000, -61.895
 380.1000, -63.080
 380.2000, -62.661
 380.3000, -62.073
 380.4000, -63.041
 380.5000, -63.190
 380.6000, -64.033
 380.7000, -62.782
 380.8000, -63.013
 380.9000, -62.458
 381.0000, -62.702
 381.1000, -62.851
 381.2000, -63.228
 381.3000, -61.921
 381.4000, -63.214
 381.5000, -62.834
 381.6000, -63.339
 381.7000, -63.336
 381.8000, -62.738
 381.9000, -62.737
 382.0000, -62.889
 382.1000, -63.134
 382.2000, -63.074
 382.3000, -62.402
 382.4000, -63.029
 382.5000, -63.654
 382.6000, -63.186
 382.7000, -63.697
 382.8000, -62.412
 382.9000, -64.012
 383.0000, -63.029
 383.1000, -62.563
 383.2000, -63.450
 383.3000, -63.084
 383.4000, -63.195
 383.5000, -64.444
 383.6000, -62.133
 383.7000, -63.548
 383.8000, -63.350
 383.9000, -63.043
 384.0000, -64.658
 384.1000, -62.752
 384.2000, -63.647
 384.3000, -62.602
 384.4000, -64.789
 384.5000, -63.341
 384.6000, -62.309
 384.7000, -63.466
 384.8000, -63.884
 384.9000, -62.557
 385.0000, -63.139
 385.1000, -63.045
 385.2000, -63.341
 385.3000, -63.637
 385.4000, -62.881
 385.5000, -64.006
 385.6000, -62.887
 385.7000, -63.344
 385.8000, -62.702
 385.9000, -63.096
 386.0000, -63.407
 386.1000, -62.653
 386.2000, -62.548
 386.3000, -63.897
 386.4000, -64.664
 386.5000, -64.267
 386.6000, -63.420
 386.7000, -63.304
 386.8000, -63.600
 386.9000, -63.324
 387.0000, -64.786
 387.1000, -63.165
 387.2000, -64.176
 387.3000, -64.465
 387.4000, -64.318
 387.5000, -64.157
 387.6000, -64.210
 387.7000, -64.888
 387.8000, -64.014
 387.9000, -63.637
 388.0000, -64.868
 388.1000, -64.107
 388.2000, -63.106
 388.3000, -64.466
 388.4000, -64.537
 388.5000, -63.170
 388.6000, -64.019
 388.7000, -64.205
 388.8000, -63.725
 388.9000, -63.223
 389.0000, -64.591
 389.1000, -64.177
 389.2000, -63.501
 389.3000, -63.184
 389.4000, -65.232
 389.5000, -63.579
 389.6000, -64.393
 389.7000, -63.315
 389.8000, -64.332
 389.9000, -64.454
 390.0000, -63.018
 390.1000, -65.699
 390.2000, -64.347
 390.3000, -64.005
 390.4000, -65.259
 390.5000, -63.661
 390.6000, -64.538
 390.7000, -63.686
 390.8000, -63.207
 390.9000, -63.906
 391.0000, -65.272
 391.1000, -64.859
 391.2000, -64.618
 391.3000, -64.482
 391.4000, -63.796
 391.5000, -63.302
 391.6000, -65.148
 391.7000, -63.443
 391.8000, -63.519
 391.9000, -64.360
 392.0000, -65.000
 392.1000, -64.316
 392.2000, -63.924
 392.3000, -64.586
 392.4000, -64.435
 392.5000, -63.841
 392.6000, -64.352
 392.7000, -63.988
 392.8000, -65.112
 392.9000, -63.826
 393.0000, -64.588
 393.1000, -64.662
 393.2000, -64.771
 393.3000, -64.792
 393.4000, -64.014
 393.5000, -64.263
 393.6000, -64.813
 393.7000, -64.807
 393.8000, -63.555
 393.9000, -65.886
 394.0000, -64.006
 394.1000, -64.411
 394.2000, -65.043
 394.3000, -64.601
 394.4000, -65.612
 394.5000, -64.191
 394.6000, -64.162
 394.7000, -64.513
 394.8000, -64.303
 394.9000, -65.018
 395.0000, -63.813
 395.1000, -64.183
 395.2000, -64.940
 395.3000, -64.107
 395.4000, -64.623
 395.5000, -64.663
 395.6000, -63.521
 395.7000, -64.604
 395.8000, -64.288
 395.9000, -64.640
 396.0000, -65.063
 396.1000, -64.831
 396.2000, -64.581
 396.3000, -64.796
 396.4000, -65.301
 396.5000, -65.236
 396.6000, -64.113
 396.7000, -65.432
 396.8000, -66.083
 396.9000, -65.432
 397.0000, -64.920
 397.1000, -65.008
 397.2000, -65.291
 397.3000, -64.693
 397.4000, -64.948
 397.5000, -65.324
 397.6000, -64.182
 397.7000, -64.835
 397.8000, -65.181
 397.9000, -65.581
 398.0000, -64.905
 398.1000, -64.145
 398.2000, -65.659
 398.3000, -65.374
 398.4000, -64.617
 398.5000, -64.404
 398.6000, -63.670
 398.7000, -65.144
 398.8000, -64.180
 398.9000, -65.438
 399.0000, -66.163
 399.1000, -65.192
 399.2000, -64.599
 399.3000, -65.018
 399.4000, -64.048
 399.5000, -66.666
 399.6000, -64.612
 399.7000, -66.093
 399.8000, -64.968
 399.9000, -63.133
 400.0000, -65.216
 400.1000, -64.627
 400.2000, -65.353
 400.3000, -65.661
 400.4000, -64.095
 400.5000, -65.638
 400.6000, -65.129
 400.7000, -65.612
 400.8000, -64.459
 400.9000, -63.945
 401.0000, -66.587
 401.1000, -64.610
 401.2000, -64.053
 401.3000, -65.590
 401.4000, -65.031
 401.5000, -65.344
 401.6000, -64.835
 401.7000, -64.008
 401.8000, -65.785
 401.9000, -65.280
 402.0000, -65.814
 402.1000, -65.134
 402.2000, -64.817
 402.3000, -65.430
 402.4000, -64.285
 402.5000, -66.360
 402.6000, -65.081
 402.7000, -64.014
 402.8000, -65.635
 402.9000, -65.041
 403.0000, -64.668
 403.1000, -64.718
 403.2000, -64.727
 403.3000, -65.553
 403.4000, -64.855
 403.5000, -64.582
 403.6000, -64.475
 403.7000, -64.444
 403.8000, -65.910
 403.9000, -64.470
 404.0000, -65.880
 404.1000, -65.332
 404.2000, -65.049
 404.3000, -65.017
 404.4000, -65.263
 404.5000, -64.816
 404.6000, -65.345
 404.7000, -65.311
 404.8000, -65.054
 404.9000, -65.516
 405.0000, -66.058
 405.1000, -64.852
 405.2000, -64.955
 405.3000, -66.494
 405.4000, -64.936
 405.5000, -65.536
 405.6000, -64.868
 405.7000, -64.281
 405.8000, -65.272
 405.9000, -64.258
 406.0000, -65.699
 406.1000, -64.854
 406.2000, -64.571
 406.3000, -65.657
 406.4000, -65.366
 406.5000, -64.342
 406.6000, -64.818
 406.7000, -65.341
 406.8000, -65.102
 406.9000, -65.334
 407.0000, -65.317
 407.1000, -65.824
 407.2000, -65.440
 407.3000, -65.623
 407.4000, -64.876
 407.5000, -67.153
 407.6000, -64.245
 407.7000, -64.835
 407.8000, -66.008
 407.9000, -65.607
 408.0000, -65.609
 408.1000, -65.736
 408.2000, -64.266
 408.3000, -64.936
 408.4000, -65.498
 408.5000, -65.344
 408.6000, -64.383
 408.7000, -65.575
 408.8000, -65.554
 408.9000, -64.982
 409.0000, -65.298
 409.1000, -64.953
 409.2000, -63.616
 409.3000, -65.330
 409.4000, -65.163
 409.5000, -65.359
 409.6000, -65.023
 409.7000, -64.688
 409.8000, -65.331
 409.9000, -64.011
 410.0000, -65.653
 410.1000, -65.439
 410.2000, -63.720
 410.3000, -64.677
 410.4000, -64.004
 410.5000, -64.580
 410.6000, -64.531
 410.7000, -65.244
 410.8000, -64.536
 410.9000, -63.949
 411.0000, -65.723
 411.1000, -64.014
 411.2000, -64.441
 411.3000, -64.053
 411.4000, -64.258
 411.5000, -65.062
 411.6000, -64.274
 411.7000, -64.004
 411.8000, -64.620
 411.9000, -63.701
 412.0000, -64.029
 412.1000, -63.945
 412.2000, -64.643
 412.3000, -64.490
 412.4000, -63.823
 412.5000, -65.460
 412.6000, -64.092
 412.7000, -63.710
 412.8000, -64.597
 412.9000, -64.090
 413.0000, -64.668
 413.1000, -64.896
 413.2000, -64.300
 413.3000, -64.344
 413.4000, -64.108
 413.5000, -64.402
 413.6000, -64.009
 413.7000, -63.923
 413.8000, -64.572
 413.9000, -63.720
 414.0000, -64.597
 414.1000, -64.056
 414.2000, -63.829
 414.3000, -63.863
 414.4000, -63.945
 414.5000, -64.613
 414.6000, -63.105
 414.7000, -65.025
 414.8000, -63.916
 414.9000, -65.117
 415.0000, -63.772
 415.1000, -64.133
 415.2000, -64.972
 415.3000, -64.043
 415.4000, -63.988
 415.5000, -64.161
 415.6000, -64.324
 415.7000, -64.640
 415.8000, -64.050
 415.9000, -63.581
 416.0000, -65.278
 416.1000, -63.382
 416.2000, -64.311
 416.3000, -63.893
 416.4000, -63.954
 416.5000, -64.211
 416.6000, -63.584
 416.7000, -63.872
 416.8000, -64.104
 416.9000, -63.605
 417.0000, -64.739
 417.1000, -63.912
 417.2000, -63.785
 417.3000, -63.701
 417.4000, -63.260
 417.5000, -64.653
 417.6000, -63.611
 417.7000, -65.044
 417.8000, -64.142
 417.9000, -63.364
 418.0000, -64.052
 418.1000, -63.660
 418.2000, -65.168
 418.3000, -63.077
 418.4000, -63.257
 418.5000, -63.478
 418.6000, -63.349
 418.7000, -64.611
 418.8000, -63.540
 418.9000, -63.841
 419.0000, -63.999
 419.1000, -62.999
 419.2000, -63.923
 419.3000, -63.865
 419.4000, -64.063
 419.5000, -63.463
 419.6000, -63.569
 419.7000, -64.203
 419.8000, -63.068
 419.9000, -63.888
 420.0000, -63.593
 420.1000, -63.678
 420.2000, -63.618
 420.3000, -62.971
 420.4000, -63.892
 420.5000, -63.816
 420.6000, -63.365
 420.7000, -63.401
 420.8000, -63.467
 420.9000, -63.488
 421.0000, -63.340
 421.1000, -63.217
 421.2000, -64.662
 421.3000, -62.949
 421.4000, -64.912
 421.5000, -63.443
 421.6000, -63.935
 421.7000, -64.057
 421.8000, -63.160
 421.9000, -63.407
 422.0000, -63.647
 422.1000, -63.866
 422.2000, -63.168
 422.3000, -63.327
 422.4000, -63.624
 422.5000, -63.770
 422.6000, -63.355
 422.7000, -63.632
 422.8000, -63.267
 422.9000, -64.144
 423.0000, -63.005
 423.1000, -63.921
 423.2000, -63.495
 423.3000, -63.646
 423.4000, -64.287
 423.5000, -63.248
 423.6000, -64.427
 423.7000, -64.538
 423.8000, -63.311
 423.9000, -63.983
 424.0000, -64.557
 424.1000, -63.899
 424.2000, -63.405
 424.3000, -64.090
 424.4000, -64.219
 424.5000, -64.899
 424.6000, -64.630
 424.7000, -64.672
 424.8000, -64.866
 424.9000, -64.180
 425.0000, -64.222
 425.1000, -64.824
 425.2000, -64.112
 425.3000, -64.840
 425.4000, -66.260
 425.5000, -63.786
 425.6000, -65.309
 425.7000, -65.442
 425.8000, -64.854
 425.9000, -63.877
 426.0000, -64.510
 426.1000, -65.706
 426.2000, -64.130
 426.3000, -64.685
 426.4000, -64.476
 426.5000, -64.292
 426.6000, -64.985
 426.7000, -64.177
 426.8000, -64.570
 426.9000, -64.573
 427.0000, -64.357
 427.1000, -65.138
 427.2000, -64.361
 427.3000, -63.905
 427.4000, -64.418
 427.5000, -64.721
 427.6000, -64.441
 427.7000, -63.529
 427.8000, -64.134
 427.9000, -63.810
 428.0000, -65.396
 428.1000, -64.235
 428.2000, -64.635
 428.3000, -63.793
 428.4000, -64.242
 428.5000, -65.432
 428.6000, -64.315
 428.7000, -64.042
 428.8000, -64.568
 428.9000, -64.559
 429.0000, -64.624
 429.1000, -64.304
 429.2000, -65.008
 429.3000, -63.885
 429.4000, -63.915
 429.5000, -65.560
 429.6000, -63.939
 429.7000, -64.385
 429.8000, -64.223
 429.9000, -63.937
 430.0000, -64.591
 430.1000, -64.700
 430.2000, -64.607
 430.3000, -63.016
 430.4000, -63.854
 430.5000, -63.896
 430.6000, -63.953
 430.7000, -64.232
 430.8000, -63.559
 430.9000, -65.867
 431.0000, -62.979
 431.1000, -64.179
 431.2000, -65.024
 431.3000, -63.998
 431.4000, -65.339
 431.5000, -63.952
 431.6000, -63.878
 431.7000, -63.508
 431.8000, -63.246
 431.9000, -65.731
 432.0000, -63.427
 432.1000, -64.475
 432.2000, -64.820
 432.3000, -64.171
 432.4000, -63.484
 432.5000, -63.720
 432.6000, -64.628
 432.7000, -63.398
 432.8000, -64.487
 432.9000, -64.221
 433.0000, -63.598
 433.1000, -63.474
 433.2000, -64.243
 433.3000, -63.685
 433.4000, -64.429
 433.5000, -63.735
 433.6000, -64.826
 433.7000, -63.822
 433.8000, -63.815
 433.9000, -64.538
 434.0000, -64.041
 434.1000, -63.584
 434.2000, -64.736
 434.3000, -64.332
 434.4000, -63.838
 434.5000, -63.387
 434.6000, -64.559
 434.7000, -63.613
 434.8000, -62.869
 434.9000, -64.061
 435.0000, -64.268
 435.1000, -64.682
 435.2000, -63.020
 435.3000, -65.056
 435.4000, -62.671
 435.5000, -63.515
 435.6000, -64.796
 435.7000, -62.527
 435.8000, -64.972
 435.9000, -64.181
 436.0000, -64.996
 436.1000, -63.037
 436.2000, -62.920
 436.3000, -64.819
 436.4000, -63.394
 436.5000, -63.996
 436.6000, -62.684
 436.7000, -63.800
 436.8000, -66.433
 436.9000, -62.613
 437.0000, -64.238
 437.1000, -63.976
 437.2000, -65.537
 437.3000, -63.333
 437.4000, -63.023
 437.5000, -63.678
 437.6000, -63.488
 437.7000, -64.893
 437.8000, -63.536
 437.9000, -62.599
 438.0000, -64.552
 438.1000, -63.443
 438.2000, -63.238
 438.3000, -63.648
 438.4000, -63.936
 438.5000, -64.382
 438.6000, -62.916
 438.7000, -63.267
 438.8000, -63.515
 438.9000, -64.077
 439.0000, -63.129
 439.1000, -63.104
 439.2000, -65.601
 439.3000, -63.442
 439.4000, -63.195
 439.5000, -62.819
 439.6000, -63.502
 439.7000, -64.101
 439.8000, -64.054
 439.9000, -63.616
 440.0000, -63.464
 440.1000, -64.825
 440.2000, -63.803
 440.3000, -64.243
 440.4000, -64.392
 440.5000, -63.793
 440.6000, -63.639
 440.7000, -63.667
 440.8000, -64.189
 440.9000, -63.225
 441.0000, -63.527
 441.1000, -63.343
 441.2000, -63.434
 441.3000, -64.187
 441.4000, -63.585
 441.5000, -63.063
 441.6000, -63.630
 441.7000, -63.115
 441.8000, -64.367
 441.9000, -62.805
 442.0000, -64.205
 442.1000, -63.461
 442.2000, -62.829
 442.3000, -63.587
 442.4000, -64.445
 442.5000, -64.730
 442.6000, -63.674
 442.7000, -62.892
 442.8000, -63.510
 442.9000, -63.440
 443.0000, -64.091
 443.1000, -63.108
 443.2000, -63.473
 443.3000, -63.370
 443.4000, -62.932
 443.5000, -63.993
 443.6000, -62.279
 443.7000, -64.902
 443.8000, -62.998
 443.9000, -63.887
 444.0000, -64.042
 444.1000, -63.254
 444.2000, -63.687
 444.3000, -63.133
 444.4000, -63.640
 444.5000, -63.005
 444.6000, -63.367
 444.7000, -64.581
 444.8000, -62.691
 444.9000, -65.026
 445.0000, -63.046
 445.1000, -64.757
 445.2000, -64.209
 445.3000, -62.159
 445.4000, -64.331
 445.5000, -63.390
 445.6000, -62.931
 445.7000, -64.496
 445.8000, -63.875
 445.9000, -63.403
 446.0000, -63.623
 446.1000, -63.641
 446.2000, -63.739
 446.3000, -63.617
 446.4000, -64.524
 446.5000, -63.191
 446.6000, -64.045
 446.7000, -62.571
 446.8000, -64.806
 446.9000, -63.359
 447.0000, -63.233
 447.1000, -65.220
 447.2000, -63.463
 447.3000, -64.482
 447.4000, -63.401
 447.5000, -63.861
 447.6000, -63.425
 447.7000, -63.629
 447.8000, -64.169
 447.9000, -63.462
 448.0000, -63.980
 448.1000, -63.783
 448.2000, -64.083
 448.3000, -63.900
 448.4000, -63.129
 448.5000, -63.431
 448.6000, -63.923
 448.7000, -63.555
 448.8000, -63.931
 448.9000, -64.073
 449.0000, -63.577
 449.1000, -62.577
 449.2000, -63.323
 449.3000, -63.522
 449.4000, -65.470
 449.5000, -64.227
 449.6000, -64.913
 449.7000, -63.674
 449.8000, -63.135
 449.9000, -63.602
 450.0000, -63.952
 450.1000, -55.935
 450.2000, -56.119
 450.3000, -55.260
 450.4000, -55.503
 450.5000, -55.663
 450.6000, -55.890
 450.7000, -55.446
 450.8000, -55.974
 450.9000, -55.923
 451.0000, -54.948
 451.1000, -56.123
 451.2000, -55.495
 451.3000, -55.703
 451.4000, -55.885
 451.5000, -55.287
 451.6000, -55.294
 451.7000, -56.580
 451.8000, -54.959
 451.9000, -55.947
 452.0000, -55.451
 452.1000, -56.009
 452.2000, -56.054
 452.3000, -55.011
 452.4000, -57.122
 452.5000, -56.692
 452.6000, -55.703
 452.7000, -56.778
 452.8000, -55.795
 452.9000, -56.184
 453.0000, -56.230
 453.1000, -55.811
 453.2000, -56.241
 453.3000, -56.124
 453.4000, -55.881
 453.5000, -56.207
 453.6000, -55.949
 453.7000, -55.880
 453.8000, -57.179
 453.9000, -55.512
 454.0000, -56.235
 454.1000, -55.632
 454.2000, -55.892
 454.3000, -56.619
 454.4000, -56.083
 454.5000, -56.213
 454.6000, -56.892
 454.7000, -55.936
 454.8000, -56.725
 454.9000, -55.963
 455.0000, -56.240
 455.1000, -56.767
 455.2000, -56.415
 455.3000, -55.728
 455.4000, -56.234
 455.5000, -56.200
 455.6000, -56.108
 455.7000, -56.054
 455.8000, -56.753
 455.9000, -57.549
 456.0000, -55.958
 456.1000, -55.885
 456.2000, -56.627
 456.3000, -57.151
 456.4000, -55.745
 456.5000, -56.243
 456.6000, -57.026
 456.7000, -56.568
 456.8000, -56.546
 456.9000, -56.645
 457.0000, -56.169
 457.1000, -55.895
 457.2000, -57.375
 457.3000, -56.392
 457.4000, -57.055
 457.5000, -56.460
 457.6000, -56.677
 457.7000, -56.595
 457.8000, -56.206
 457.9000, -56.489
 458.0000, -56.462
 458.1000, -56.966
 458.2000, -57.010
 458.3000, -56.481
 458.4000, -56.872
 458.5000, -57.182
 458.6000, -56.843
 458.7000, -56.903
 458.8000, -57.279
 458.9000, -56.582
 459.0000, -57.493
 459.1000, -56.706
 459.2000, -56.220
 459.3000, -56.588
 459.4000, -56.446
 459.5000, -57.116
 459.6000, -57.105
 459.7000, -56.900
 459.8000, -57.191
 459.9000, -56.707
 460.0000, -56.550
 460.1000, -57.590
 460.2000, -56.478
 460.3000, -57.060
 460.4000, -57.072
 460.5000, -56.839
 460.6000, -57.208
 460.7000, -57.349
 460.8000, -57.455
 460.9000, -56.559
 461.0000, -57.139
 461.1000, -56.293
 461.2000, -57.726
 461.3000, -56.806
 461.4000, -57.437
 461.5000, -57.265
 461.6000, -56.766
 461.7000, -56.865
 461.8000, -57.231
 461.9000, -56.987
 462.0000, -56.943
 462.1000, -57.225
 462.2000, -57.286
 462.3000, -56.935
 462.4000, -57.740
 462.5000, -57.496
 462.6000, -57.264
 462.7000, -57.548
 462.8000, -57.062
 462.9000, -57.595
 463.0000, -57.206
 463.1000, -56.858
 463.2000, -57.459
 463.3000, -57.235
 463.4000, -57.137
 463.5000, -57.173
 463.6000, -57.484
 463.7000, -57.188
 463.8000, -57.391
 463.9000, -56.945
 464.0000, -57.584
 464.1000, -57.547
 464.2000, -57.625
 464.3000, -57.340
 464.4000, -57.573
 464.5000, -57.166
 464.6000, -57.450
 464.7000, -57.285
 464.8000, -57.973
 464.9000, -58.027
 465.0000, -57.236
 465.1000, -57.788
 465.2000, -57.243
 465.3000, -57.136
 465.4000, -57.873
 465.5000, -57.400
 465.6000, -58.351
 465.7000, -57.751
 465.8000, -57.471
 465.9000, -57.878
 466.0000, -58.078
 466.1000, -58.272
 466.2000, -57.728
 466.3000, -57.703
 466.4000, -58.274
 466.5000, -57.866
 466.6000, -58.168
 466.7000, -58.212
 466.8000, -57.058
 466.9000, -58.143
 467.0000, -57.312
 467.1000, -57.686
 467.2000, -58.448
 467.3000, -58.139
 467.4000, -57.830
 467.5000, -58.021
 467.6000, -57.714
 467.7000, -58.171
 467.8000, -58.102
 467.9000, -58.185
 468.0000, -58.108
 468.1000, -57.603
 468.2000, -58.548
 468.3000, -58.042
 468.4000, -57.693
 468.5000, -58.670
 468.6000, -57.721
 468.7000, -58.444
 468.8000, -58.239
 468.9000, -57.449
 469.0000, -59.157
 469.1000, -58.565
 469.2000, -58.224
 469.3000, -57.343
 469.4000, -57.934
 469.5000, -58.051
 469.6000, -57.948
 469.7000, -57.891
 469.8000, -57.819
 469.9000, -57.565
 470.0000, -58.149
 470.1000, -59.092
 470.2000, -58.158
 470.3000, -58.216
 470.4000, -58.819
 470.5000, -58.330
 470.6000, -58.414
 470.7000, -58.238
 470.8000, -58.382
 470.9000, -58.786
 471.0000, -57.501
 471.1000, -58.844
 471.2000, -58.847
 471.3000, -58.176
 471.4000, -58.825
 471.5000, -58.025
 471.6000, -57.569
 471.7000, -59.421
 471.8000, -57.714
 471.9000, -58.663
 472.0000, -58.713
 472.1000, -58.185
 472.2000, -58.354
 472.3000, -58.344
 472.4000, -59.304
 472.5000, -58.592
 472.6000, -58.205
 472.7000, -59.422
 472.8000, -58.075
 472.9000, -58.338
 473.0000, -58.393
 473.1000, -57.875
 473.2000, -58.664
 473.3000, -58.924
 473.4000, -58.467
 473.5000, -58.901
 473.6000, -57.938
 473.7000, -59.205
 473.8000, -58.608
 473.9000, -59.247
 474.0000, -59.387
 474.1000, -58.148
 474.2000, -58.637
 474.3000, -58.688
 474.4000, -58.361
 474.5000, -58.669
 474.6000, -58.410
 474.7000, -59.501
 474.8000, -58.625
 474.9000, -58.095
 475.0000, -59.678
 475.1000, -58.784
 475.2000, -58.461
 475.3000, -59.042
 475.4000, -58.909
 475.5000, -58.881
 475.6000, -58.456
 475.7000, -58.404
 475.8000, -58.882
 475.9000, -58.939
 476.0000, -59.052
 476.1000, -59.101
 476.2000, -58.643
 476.3000, -59.227
 476.4000, -59.640
 476.5000, -58.555
 476.6000, -59.789
 476.7000, -58.861
 476.8000, -58.670
 476.9000, -58.829
 477.0000, -58.755
 477.1000, -58.691
 477.2000, -59.493
 477.3000, -58.872
 477.4000, -59.573
 477.5000, -59.369
 477.6000, -58.873
 477.7000, -58.445
 477.8000, -59.358
 477.9000, -58.977
 478.0000, -59.971
 478.1000, -59.089
 478.2000, -58.876
 478.3000, -59.256
 478.4000, -59.340
 478.5000, -59.811
 478.6000, -59.150
 478.7000, -59.891
 478.8000, -59.466
 478.9000, -59.050
 479.0000, -59.508
 479.1000, -59.377
 479.2000, -59.305
 479.3000, -59.325
 479.4000, -59.576
 479.5000, -60.157
 479.6000, -60.007
 479.7000, -59.123
 479.8000, -59.951
 479.9000, -59.444
 480.0000, -59.105
 480.1000, -59.286
 480.2000, -59.282
 480.3000, -59.953
 480.4000, -59.440
 480.5000, -59.686
 480.6000, -59.423
 480.7000, -59.834
 480.8000, -59.421
 480.9000, -59.398
 481.0000, -59.395
 481.1000, -59.488
 481.2000, -59.365
 481.3000, -59.760
 481.4000, -60.117
 481.5000, -59.801
 481.6000, -60.042
 481.7000, -59.968
 481.8000, -58.993
 481.9000, -59.919
 482.0000, -59.526
 482.1000, -60.144
 482.2000, -59.520
 482.3000, -59.011
 482.4000, -60.298
 482.5000, -59.287
 482.6000, -60.393
 482.7000, -60.033
 482.8000, -59.872
 482.9000, -59.855
 483.0000, -59.584
 483.1000, -59.674
 483.2000, -60.205
 483.3000, -59.567
 483.4000, -59.056
 483.5000, -60.272
 483.6000, -59.278
 483.7000, -60.009
 483.8000, -59.490
 483.9000, -59.667
 484.0000, -60.048
 484.1000, -59.383
 484.2000, -59.552
 484.3000, -61.170
 484.4000, -59.684
 484.5000, -59.818
 484.6000, -59.468
 484.7000, -59.784
 484.8000, -60.339
 484.9000, -59.932
 485.0000, -59.824
 485.1000, -59.893
 485.2000, -60.142
 485.3000, -60.743
 485.4000, -60.060
 485.5000, -59.429
 485.6000, -60.198
 485.7000, -59.515
 485.8000, -60.438
 485.9000, -60.367
 486.0000, -59.929
 486.1000, -60.398
 486.2000, -59.671
 486.3000, -60.560
 486.4000, -60.172
 486.5000, -60.119
 486.6000, -60.040
 486.7000, -60.555
 486.8000, -59.986
 486.9000, -60.919
 487.0000, -59.932
 487.1000, -60.163
 487.2000, -60.321
 487.3000, -60.057
 487.4000, -61.008
 487.5000, -59.782
 487.6000, -60.293
 487.7000, -60.536
 487.8000, -60.045
 487.9000, -60.773
 488.0000, -60.181
 488.1000, -60.015
 488.2000, -60.482
 488.3000, -60.352
 488.4000, -60.180
 488.5000, -60.375
 488.6000, -59.542
 488.7000, -61.054
 488.8000, -59.855
 488.9000, -60.329
 489.0000, -60.857
 489.1000, -60.844
 489.2000, -60.819
 489.3000, -61.011
 489.4000, -60.838
 489.5000, -61.418
 489.6000, -60.782
 489.7000, -60.521
 489.8000, -60.701
 489.9000, -60.677
 490.0000, -60.708
 490.1000, -60.209
 490.2000, -60.027
 490.3000, -62.412
 490.4000, -60.064
 490.5000, -61.443
 490.6000, -61.366
 490.7000, -60.250
 490.8000, -61.229
 490.9000, -60.144
 491.0000, -60.699
 491.1000, -60.308
 491.2000, -60.749
 491.3000, -61.054
 491.4000, -60.835
 491.5000, -60.498
 491.6000, -60.932
 491.7000, -60.653
 491.8000, -61.190
 491.9000, -61.367
 492.0000, -60.278
 492.1000, -60.499
 492.2000, -61.475
 492.3000, -61.054
 492.4000, -61.571
 492.5000, -60.652
 492.6000, -61.154
 492.7000, -60.865
 492.8000, -60.385
 492.9000, -61.899
 493.0000, -60.536
 493.1000, -60.890
 493.2000, -60.944
 493.3000, -60.571
 493.4000, -60.900
 493.5000, -60.909
 493.6000, -61.923
 493.7000, -61.329
 493.8000, -60.826
 493.9000, -61.588
 494.0000, -61.019
 494.1000, -61.090
 494.2000, -61.426
 494.3000, -60.832
 494.4000, -61.167
 494.5000, -60.643
 494.6000, -60.762
 494.7000, -60.964
 494.8000, -61.245
 494.9000, -61.052
 495.0000, -61.958
 495.1000, -60.454
 495.2000, -61.211
 495.3000, -61.804
 495.4000, -60.225
 495.5000, -61.648
 495.6000, -61.397
 495.7000, -61.542
 495.8000, -61.240
 495.9000, -60.988
 496.0000, -60.742
 496.1000, -61.580
 496.2000, -61.443
 496.3000, -60.939
 496.4000, -61.465
 496.5000, -61.407
 496.6000, -61.282
 496.7000, -62.433
 496.8000, -61.120
 496.9000, -61.003
 497.0000, -61.782
 497.1000, -61.241
 497.2000, -61.035
 497.3000, -61.633
 497.4000, -61.054
 497.5000, -61.735
 497.6000, -62.277
 497.7000, -60.640
 497.8000, -60.883
 497.9000, -61.384
 498.0000, -61.509
 498.1000, -61.762
 498.2000, -61.576
 498.3000, -61.332
 498.4000, -62.115
 498.5000, -61.479
 498.6000, -61.334
 498.7000, -62.140
 498.8000, -61.002
 498.9000, -62.296
 499.0000, -61.453
 499.1000, -61.735
 499.2000, -62.078
 499.3000, -60.675
 499.4000, -61.627
 499.5000, -61.776
 499.6000, -61.701
 499.7000, -61.340
 499.8000, -61.050
 499.9000, -62.112
 500.0000, -62.076
 500.1000, -62.536
 500.2000, -61.542
 500.3000, -61.168
 500.4000, -61.843
 500.5000, -61.855
 500.6000, -61.398
 500.7000, -60.981
 500.8000, -61.183
 500.9000, -61.611
 501.0000, -61.707
 501.1000, -62.349
 501.2000, -61.831
 501.3000, -61.445
 501.4000, -61.058
 501.5000, -61.386
 501.6000, -61.060
 501.7000, -61.759
 501.8000, -62.200
 501.9000, -61.787
 502.0000, -61.665
 502.1000, -62.732
 502.2000, -61.803
 502.3000, -61.856
 502.4000, -61.375
 502.5000, -62.140
 502.6000, -61.845
 502.7000, -61.837
 502.8000, -62.045
 502.9000, -62.298
 503.0000, -61.286
 503.1000, -61.541
 503.2000, -61.714
 503.3000, -62.383
 503.4000, -61.697
 503.5000, -62.482
 503.6000, -62.307
 503.7000, -61.173
 503.8000, -61.831
 503.9000, -61.950
 504.0000, -61.393
 504.1000, -62.661
 504.2000, -61.616
 504.3000, -61.368
 504.4000, -61.796
 504.5000, -62.153
 504.6000, -62.672
 504.7000, -61.701
 504.8000, -61.744
 504.9000, -62.716
 505.0000, -61.801
 505.1000, -61.969
 505.2000, -62.678
 505.3000, -62.061
 505.4000, -62.192
 505.5000, -61.501
 505.6000, -61.938
 505.7000, -62.050
 505.8000, -61.613
 505.9000, -62.490
 506.0000, -62.991
 506.1000, -61.748
 506.2000, -62.847
 506.3000, -61.584
 506.4000, -61.797
 506.5000, -62.209
 506.6000, -62.645
 506.7000, -62.422
 506.8000, -61.508
 506.9000, -62.101
 507.0000, -62.954
 507.1000, -62.722
 507.2000, -62.165
 507.3000, -61.696
 507.4000, -61.810
 507.5000, -62.086
 507.6000, -61.706
 507.7000, -62.197
 507.8000, -62.329
 507.9000, -61.241
 508.0000, -61.800
 508.1000, -61.418
 508.2000, -61.767
 508.3000, -63.102
 508.4000, -61.820
 508.5000, -62.408
 508.6000, -62.257
 508.7000, -61.258
 508.8000, -62.172
 508.9000, -61.753
 509.0000, -61.912
 509.1000, -61.950
 509.2000, -61.602
 509.3000, -61.860
 509.4000, -61.410
 509.5000, -61.552
 509.6000, -61.319
 509.7000, -61.253
 509.8000, -61.812
 509.9000, -62.089
 510.0000, -61.191
 510.1000, -61.782
 510.2000, -62.174
 510.3000, -61.779
 510.4000, -62.490
 510.5000, -61.769
 510.6000, -61.326
 510.7000, -61.391
 510.8000, -61.599
 510.9000, -62.357
 511.0000, -60.593
 511.1000, -62.529
 511.2000, -61.767
 511.3000, -61.717
 511.4000, -61.811
 511.5000, -61.845
 511.6000, -63.045
 511.7000, -62.259
 511.8000, -62.081
 511.9000, -62.106
 512.0000, -62.463
 512.1000, -61.783
 512.2000, -62.464
 512.3000, -61.354
 512.4000, -62.617
 512.5000, -61.982
 512.6000, -61.969
 512.7000, -62.266
 512.8000, -62.273
 512.9000, -62.109
 513.0000, -62.145
 513.1000, -62.402
 513.2000, -62.425
 513.3000, -62.634
 513.4000, -61.961
 513.5000, -62.284
 513.6000, -61.664
 513.7000, -62.167
 513.8000, -61.877
 513.9000, -62.378
 514.0000, -61.657
 514.1000, -62.157
 514.2000, -62.317
 514.3000, -61.249
 514.4000, -61.806
 514.5000, -62.497
 514.6000, -61.696
 514.7000, -61.839
 514.8000, -61.780
 514.9000, -60.786
 515.0000, -61.489
 515.1000, -61.960
 515.2000, -61.292
 515.3000, -61.438
 515.4000, -61.671
 515.5000, -61.589
 515.6000, -62.263
 515.7000, -62.134
 515.8000, -62.323
 515.9000, -62.069
 516.0000, -61.654
 516.1000, -62.456
 516.2000, -61.628
 516.3000, -61.552
 516.4000, -61.247
 516.5000, -60.708
 516.6000, -61.719
 516.7000, -61.231
 516.8000, -60.740
 516.9000, -61.003
 517.0000, -60.744
 517.1000, -61.282
 517.2000, -61.310
 517.3000, -61.070
 517.4000, -61.166
 517.5000, -61.167
 517.6000, -61.653
 517.7000, -60.660
 517.8000, -60.528
 517.9000, -60.829
 518.0000, -61.095
 518.1000, -61.038
 518.2000, -61.495
 518.3000, -60.769
 518.4000, -62.130
 518.5000, -61.267
 518.6000, -61.747
 518.7000, -61.687
 518.8000, -61.254
 518.9000, -61.297
 519.0000, -61.135
 519.1000, -60.827
 519.2000, -61.510
 519.3000, -60.835
 519.4000, -61.211
 519.5000, -61.172
 519.6000, -61.242
 519.7000, -61.205
 519.8000, -61.288
 519.9000, -61.499
 520.0000, -61.913
 520.1000, -61.817
 520.2000, -61.844
 520.3000, -62.173
 520.4000, -61.685
 520.5000, -61.580
 520.6000, -61.667
 520.7000, -61.174
 520.8000, -61.828
 520.9000, -62.141
 521.0000, -61.802
 521.1000, -61.119
 521.2000, -61.387
 521.3000, -62.017
 521.4000, -61.390
 521.5000, -61.996
 521.6000, -62.089
 521.7000, -62.602
 521.8000, -62.564
 521.9000, -61.957
 522.0000, -62.197
 522.1000, -62.175
 522.2000, -61.438
 522.3000, -62.018
 522.4000, -61.672
 522.5000, -61.464
 522.6000, -62.832
 522.7000, -61.983
 522.8000, -61.922
 522.9000, -61.991
 523.0000, -61.529
 523.1000, -62.127
 523.2000, -61.782
 523.3000, -61.825
 523.4000, -61.578
 523.5000, -61.841
 523.6000, -61.581
 523.7000, -61.898
 523.8000, -61.652
 523.9000, -61.437
 524.0000, -61.055
 524.1000, -61.615
 524.2000, -61.017
 524.3000, -61.681
 524.4000, -61.001
 524.5000, -61.280
 524.6000, -61.372
 524.7000, -61.638
 524.8000, -60.971
 524.9000, -61.736
 525.0000, -60.685
 525.1000, -61.397
 525.2000, -61.629
 525.3000, -61.029
 525.4000, -61.218
 525.5000, -61.792
 525.6000, -61.526
 525.7000, -61.816
 525.8000, -61.029
 525.9000, -61.734
 526.0000, -61.674
 526.1000, -61.363
 526.2000, -61.788
 526.3000, -60.998
 526.4000, -62.255
 526.5000, -61.697
 526.6000, -61.390
 526.7000, -61.816
 526.8000, -61.589
 526.9000, -61.352
 527.0000, -61.599
 527.1000, -61.404
 527.2000, -61.409
 527.3000, -61.328
 527.4000, -60.891
 527.5000, -61.295
 527.6000, -60.872
 527.7000, -61.637
 527.8000, -61.370
 527.9000, -60.869
 528.0000, -61.438
 528.1000, -60.872
 528.2000, -61.521
 528.3000, -61.673
 528.4000, -61.414
 528.5000, -61.182
 528.6000, -61.240
 528.7000, -60.861
 528.8000, -61.309
 528.9000, -60.976
 529.0000, -61.090
 529.1000, -60.756
 529.2000, -60.691
 529.3000, -60.314
 529.4000, -60.289
 529.5000, -59.835
 529.6000, -60.195
 529.7000, -59.534
 529.8000, -60.245
 529.9000, -59.691
 530.0000, -59.793
 530.1000, -60.087
 530.2000, -59.724
 530.3000, -59.926
 530.4000, -60.103
 530.5000, -59.848
 530.6000, -60.240
 530.7000, -60.462
 530.8000, -60.038
 530.9000, -60.532
 531.0000, -60.458
 531.1000, -60.844
 531.2000, -60.380
 531.3000, -60.720
 531.4000, -61.160
 531.5000, -60.614
 531.6000, -61.193
 531.7000, -60.832
 531.8000, -60.605
 531.9000, -60.683
 532.0000, -60.762
 532.1000, -61.022
 532.2000, -60.886
 532.3000, -60.354
 532.4000, -60.488
 532.5000, -60.542
 532.6000, -60.363
 532.7000, -60.476
 532.8000, -60.331
 532.9000, -60.119
 533.0000, -60.084
 533.1000, -59.948
 533.2000, -60.004
 533.3000, -59.880
 533.4000, -59.478
 533.5000, -59.243
 533.6000, -58.804
 533.7000, -59.346
 533.8000, -59.226
 533.9000, -59.383
 534.0000, -59.476
 534.1000, -59.295
 534.2000, -59.324
 534.3000, -60.167
 534.4000, -60.338
 534.5000, -60.640
 534.6000, -60.628
 534.7000, -60.961
 534.8000, -60.207
 534.9000, -59.851
 535.0000, -60.621
 535.1000, -59.702
 535.2000, -59.800
 535.3000, -59.409
 535.4000, -59.550
 535.5000, -59.139
 535.6000, -59.301
 535.7000, -59.271
 535.8000, -59.783
 535.9000, -59.404
 536.0000, -59.842
 536.1000, -60.046
 536.2000, -60.291
 536.3000, -61.005
 536.4000, -60.582
 536.5000, -61.218
 536.6000, -61.674
 536.7000, -61.859
 536.8000, -62.485
 536.9000, -62.501
 537.0000, -62.675
 537.1000, -62.784
 537.2000, -61.996
 537.3000, -62.564
 537.4000, -61.781
 537.5000, -62.150
 537.6000, -62.731
 537.7000, -61.610
 537.8000, -61.842
 537.9000, -61.482
 538.0000, -61.207
 538.1000, -60.716
 538.2000, -60.718
 538.3000, -60.221
 538.4000, -59.901
 538.5000, -59.639
 538.6000, -59.976
 538.7000, -59.733
 538.8000, -59.917
 538.9000, -60.042
 539.0000, -60.353
 539.1000, -60.690
 539.2000, -60.671
 539.3000, -61.070
 539.4000, -61.026
 539.5000, -60.951
 539.6000, -60.568
 539.7000, -60.070
 539.8000, -59.543
 539.9000, -59.560
 540.0000, -58.872
 540.1000, -58.502
 540.2000, -57.911
 540.3000, -57.749
 540.4000, -57.663
 540.5000, -57.305
 540.6000, -57.577
 540.7000, -57.735
 540.8000, -57.541
 540.9000, -58.066
 541.0000, -57.830
 541.1000, -57.776
 541.2000, -58.194
 541.3000, -57.963
 541.4000, -58.335
 541.5000, -57.936
 541.6000, -58.390
 541.7000, -58.436
 541.8000, -58.162
 541.9000, -58.273
 542.0000, -58.348
 542.1000, -58.276
 542.2000, -58.369
 542.3000, -58.626
 542.4000, -59.098
 542.5000, -60.024
 542.6000, -60.468
 542.7000, -60.871
 542.8000, -61.417
 542.9000, -61.444
 543.0000, -61.289
 543.1000, -60.705
 543.2000, -60.736
 543.3000, -60.246
 543.4000, -60.258
 543.5000, -60.500
 543.6000, -59.933
 543.7000, -60.538
 543.8000, -60.730
 543.9000, -60.355
 544.0000, -60.655
 544.1000, -60.637
 544.2000, -59.874
 544.3000, -59.741
 544.4000, -59.259
 544.5000, -58.914
 544.6000, -58.535
 544.7000, -58.135
 544.8000, -57.821
 544.9000, -57.502
 545.0000, -57.648
 545.1000, -57.449
 545.2000, -57.265
 545.3000, -57.437
 545.4000, -57.303
 545.5000, -57.295
 545.6000, -57.094
 545.7000, -56.862
 545.8000, -56.767
 545.9000, -56.460
 546.0000, -56.206
 546.1000, -56.184
 546.2000, -55.919
 546.3000, -56.032
 546.4000, -55.725
 546.5000, -55.911
 546.6000, -56.030
 546.7000, -56.146
 546.8000, -56.137
 546.9000, -56.323
 547.0000, -56.464
 547.1000, -56.495
 547.2000, -56.265
 547.3000, -56.236
 547.4000, -56.059
 547.5000, -56.023
 547.6000, -55.857
 547.7000, -55.787
 547.8000, -55.773
 547.9000, -55.883
 548.0000, -55.811
 548.1000, -56.026
 548.2000, -56.057
 548.3000, -56.138
 548.4000, -56.141
 548.5000, -56.414
 548.6000, -56.500
 548.7000, -56.691
 548.8000, -56.726
 548.9000, -56.892
 549.0000, -57.150
 549.1000, -57.657
 549.2000, -58.266
 549.3000, -58.257
 549.4000, -58.757
 549.5000, -58.875
 549.6000, -58.846
 549.7000, -58.833
 549.8000, -58.538
 549.9000, -58.529
 550.0000, -58.161
 550.1000, -57.739
 550.2000, -57.920
 550.3000, -57.506
 550.4000, -57.185
 550.5000, -56.884
 550.6000, -56.638
 550.7000, -56.142
 550.8000, -55.734
 550.9000, -55.565
 551.0000, -55.268
 551.1000, -55.189
 551.2000, -55.162
 551.3000, -54.922
 551.4000, -54.989
 551.5000, -54.847
 551.6000, -54.690
 551.7000, -54.766
 551.8000, -54.837
 551.9000, -54.938
 552.0000, -55.032
 552.1000, -54.963
 552.2000, -55.237
 552.3000, -55.323
 552.4000, -55.164
 552.5000, -55.414
 552.6000, -55.421
 552.7000, -55.630
 552.8000, -55.531
 552.9000, -55.632
 553.0000, -55.592
 553.1000, -55.633
 553.2000, -55.580
 553.3000, -55.628
 553.4000, -55.604
 553.5000, -55.737
 553.6000, -55.713
 553.7000, -55.949
 553.8000, -56.026
 553.9000, -56.187
 554.0000, -56.232
 554.1000, -56.164
 554.2000, -55.943
 554.3000, -55.768
 554.4000, -55.341
 554.5000, -55.303
 554.6000, -55.007
 554.7000, -54.929
 554.8000, -54.888
 554.9000, -54.653
 555.0000, -54.660
 555.1000, -54.438
 555.2000, -54.203
 555.3000, -53.985
 555.4000, -53.725
 555.5000, -53.569
 555.6000, -53.354
 555.7000, -53.184
 555.8000, -53.084
 555.9000, -53.052
 556.0000, -53.079
 556.1000, -53.131
 556.2000, -53.241
 556.3000, -53.334
 556.4000, -53.496
 556.5000, -53.503
 556.6000, -53.699
 556.7000, -53.838
 556.8000, -54.027
 556.9000, -54.211
 557.0000, -54.286
 557.1000, -54.698
 557.2000, -54.916
 557.3000, -55.222
 557.4000, -55.639
 557.5000, -56.163
 557.6000, -56.596
 557.7000, -56.673
 557.8000, -56.877
 557.9000, -56.872
 558.0000, -56.722
 558.1000, -56.777
 558.2000, -56.524
 558.3000, -56.462
 558.4000, -56.367
 558.5000, -56.275
 558.6000, -56.031
 558.7000, -55.970
 558.8000, -55.598
 558.9000, -55.408
 559.0000, -54.941
 559.1000, -54.833
 559.2000, -54.685
 559.3000, -54.588
 559.4000, -54.838
 559.5000, -54.944
 559.6000, -55.321
 559.7000, -55.750
 559.8000, -56.019
 559.9000, -56.752
 560.0000, -56.946
 560.1000, -57.158
 560.2000, -56.977
 560.3000, -56.741
 560.4000, -56.065
 560.5000, -55.786
 560.6000, -55.557
 560.7000, -55.436
 560.8000, -55.388
 560.9000, -55.308
 561.0000, -54.986
 561.1000, -54.582
 561.2000, -54.374
 561.3000, -54.023
 561.4000, -54.005
 561.5000, -54.018
 561.6000, -54.134
 561.7000, -54.412
 561.8000, -54.513
 561.9000, -54.874
 562.0000, -55.175
 562.1000, -55.172
 562.2000, -55.119
 562.3000, -54.819
 562.4000, -54.495
 562.5000, -54.167
 562.6000, -53.793
 562.7000, -53.476
 562.8000, -53.315
 562.9000, -53.284
 563.0000, -53.598
 563.1000, -53.805
 563.2000, -54.301
 563.3000, -54.881
 563.4000, -55.214
 563.5000, -55.711
 563.6000, -55.677
 563.7000, -55.725
 563.8000, -55.844
 563.9000, -55.680
 564.0000, -55.590
 564.1000, -55.274
 564.2000, -54.732
 564.3000, -54.540
 564.4000, -54.285
 564.5000, -54.365
 564.6000, -54.707
 564.7000, -55.095
 564.8000, -55.646
 564.9000, -55.973
 565.0000, -56.089
 565.1000, -56.099
 565.2000, -55.969
 565.3000, -55.648
 565.4000, -55.334
 565.5000, -55.063
 565.6000, -54.963
 565.7000, -54.937
 565.8000, -55.579
 565.9000, -56.079
 566.0000, -56.344
 566.1000, -56.413
 566.2000, -55.867
 566.3000, -55.413
 566.4000, -54.934
 566.5000, -54.682
 566.6000, -54.835
 566.7000, -54.986
 566.8000, -55.044
 566.9000, -54.928
 567.0000, -54.455
 567.1000, -54.148
 567.2000, -53.668
 567.3000, -53.448
 567.4000, -53.375
 567.5000, -53.213
 567.6000, -53.280
 567.7000, -53.218
 567.8000, -53.184
 567.9000, -53.344
 568.0000, -53.542
 568.1000, -53.751
 568.2000, -53.909
 568.3000, -53.950
 568.4000, -53.804
 568.5000, -53.500
 568.6000, -53.303
 568.7000, -53.268
 568.8000, -53.237
 568.9000, -53.412
 569.0000, -53.483
 569.1000, -53.599
 569.2000, -53.601
 569.3000, -53.602
 569.4000, -53.701
 569.5000, -53.728
 569.6000, -54.055
 569.7000, -54.313
 569.8000, -54.682
 569.9000, -54.785
 570.0000, -54.881
 570.1000, -54.761
 570.2000, -55.044
 570.3000, -54.964
 570.4000, -55.498
 570.5000, -55.910
 570.6000, -56.538
 570.7000, -57.279
 570.8000, -57.849
 570.9000, -57.905
 571.0000, -58.355
 571.1000, -58.062
 571.2000, -57.723
 571.3000, -56.917
 571.4000, -56.083
 571.5000, -55.462
 571.6000, -54.897
 571.7000, -54.610
 571.8000, -54.499
 571.9000, -54.481
 572.0000, -54.627
 572.1000, -54.660
 572.2000, -54.723
 572.3000, -54.870
 572.4000, -55.017
 572.5000, -55.140
 572.6000, -55.077
 572.7000, -54.649
 572.8000, -54.163
 572.9000, -53.640
 573.0000, -53.307
 573.1000, -52.961
 573.2000, -53.033
 573.3000, -53.039
 573.4000, -53.193
 573.5000, -53.475
 573.6000, -53.748
 573.7000, -54.081
 573.8000, -54.328
 573.9000, -54.274
 574.0000, -54.026
 574.1000, -53.692
 574.2000, -53.284
 574.3000, -52.862
 574.4000, -52.501
 574.5000, -52.149
 574.6000, -51.706
 574.7000, -51.338
 574.8000, -51.105
 574.9000, -51.040
 575.0000, -51.257
 575.1000, -51.527
 575.2000, -51.769
 575.3000, -51.914
 575.4000, -51.841
 575.5000, -51.769
 575.6000, -51.872
 575.7000, -52.021
 575.8000, -52.416
 575.9000, -52.440
 576.0000, -52.249
 576.1000, -51.726
 576.2000, -51.285
 576.3000, -51.048
 576.4000, -51.018
 576.5000, -51.184
 576.6000, -51.612
 576.7000, -52.019
 576.8000, -52.193
 576.9000, -51.988
 577.0000, -51.608
 577.1000, -51.264
 577.2000, -50.972
 577.3000, -51.064
 577.4000, -51.219
 577.5000, -51.487
 577.6000, -51.649
 577.7000, -51.755
 577.8000, -51.965
 577.9000, -52.165
 578.0000, -52.248
 578.1000, -52.340
 578.2000, -52.388
 578.3000, -52.366
 578.4000, -52.135
 578.5000, -51.811
 578.6000, -51.561
 578.7000, -51.332
 578.8000, -51.280
 578.9000, -51.454
 579.0000, -51.947
 579.1000, -52.495
 579.2000, -52.790
 579.3000, -52.937
 579.4000, -52.949
 579.5000, -52.663
 579.6000, -52.270
 579.7000, -51.815
 579.8000, -51.558
 579.9000, -51.433
 580.0000, -51.304
 580.1000, -51.463
 580.2000, -51.563
 580.3000, -51.674
 580.4000, -51.935
 580.5000, -52.155
 580.6000, -52.701
 580.7000, -53.146
 580.8000, -53.787
 580.9000, -54.403
 581.0000, -54.760
 581.1000, -54.688
 581.2000, -54.578
 581.3000, -54.393
 581.4000, -54.371
 581.5000, -54.229
 581.6000, -54.126
 581.7000, -53.969
 581.8000, -53.515
 581.9000, -53.232
 582.0000, -53.043
 582.1000, -53.235
 582.2000, -53.470
 582.3000, -53.850
 582.4000, -54.198
 582.5000, -54.058
 582.6000, -53.836
 582.7000, -53.571
 582.8000, -53.339
 582.9000, -53.256
 583.0000, -53.297
 583.1000, -53.489
 583.2000, -53.909
 583.3000, -54.194
 583.4000, -54.642
 583.5000, -54.983
 583.6000, -55.360
 583.7000, -55.325
 583.8000, -55.280
 583.9000, -55.714
 584.0000, -56.243
 584.1000, -56.905
 584.2000, -57.790
 584.3000, -58.015
 584.4000, -58.051
 584.5000, -58.052
 584.6000, -57.398
 584.7000, -57.113
 584.8000, -57.062
 584.9000, -57.222
 585.0000, -57.694
 585.1000, -57.830
 585.2000, -58.455
 585.3000, -58.534
 585.4000, -59.452
 585.5000, -59.590
 585.6000, -59.832
 585.7000, -60.139
 585.8000, -60.468
 585.9000, -61.078
 586.0000, -61.149
 586.1000, -61.286
 586.2000, -61.696
 586.3000, -61.813
 586.4000, -61.752
 586.5000, -61.558
 586.6000, -61.709
 586.7000, -62.505
 586.8000, -62.791
 586.9000, -62.669
 587.0000, -64.469
 587.1000, -63.958
 587.2000, -66.163
 587.3000, -65.490
 587.4000, -65.258
 587.5000, -65.666
 587.6000, -65.561
 587.7000, -65.955
 587.8000, -65.428
 587.9000, -65.073
 588.0000, -66.273
 588.1000, -66.127
 588.2000, -65.377
 588.3000, -65.848
 588.4000, -64.804
 588.5000, -65.799
 588.6000, -66.540
 588.7000, -65.048
 588.8000, -66.104
 588.9000, -65.271
 589.0000, -67.324
 589.1000, -65.552
 589.2000, -66.193
 589.3000, -66.666
 589.4000, -67.234
 589.5000, -67.270
 589.6000, -66.297
 589.7000, -66.602
 589.8000, -67.580
 589.9000, -67.594
 590.0000, -66.864
 590.1000, -67.267
 590.2000, -66.195
 590.3000, -70.635
 590.4000, -66.454
 590.5000, -66.382
 590.6000, -67.483
 590.7000, -66.435
 590.8000, -68.629
 590.9000, -65.668
 591.0000, -66.918
 591.1000, -66.507
 591.2000, -67.268
 591.3000, -66.221
 591.4000, -67.142
 591.5000, -66.756
 591.6000, -67.821
 591.7000, -67.287
 591.8000, -67.228
 591.9000, -66.564
 592.0000, -66.618
 592.1000, -67.531
 592.2000, -65.994
 592.3000, -68.228
 592.4000, -66.660
 592.5000, -67.639
 592.6000, -68.781
 592.7000, -66.349
 592.8000, -67.621
 592.9000, -67.526
 593.0000, -67.580
 593.1000, -67.300
 593.2000, -67.637
 593.3000, -66.675
 593.4000, -67.824
 593.5000, -67.158
 593.6000, -66.686
 593.7000, -66.833
 593.8000, -66.964
 593.9000, -68.235
 594.0000, -66.024
 594.1000, -67.243
 594.2000, -66.709
 594.3000, -68.719
 594.4000, -68.176
 594.5000, -66.332
 594.6000, -66.967
 594.7000, -66.990
 594.8000, -68.434
 594.9000, -67.775
 595.0000, -67.176
 595.1000, -66.893
 595.2000, -67.625
 595.3000, -67.388
 595.4000, -66.415
 595.5000, -66.625
 595.6000, -66.825
 595.7000, -67.842
 595.8000, -66.974
 595.9000, -67.058
 596.0000, -66.445
 596.1000, -68.526
 596.2000, -67.570
 596.3000, -65.974
 596.4000, -69.495
 596.5000, -66.428
 596.6000, -68.289
 596.7000, -67.074
 596.8000, -67.014
 596.9000, -65.978
 597.0000, -67.648
 597.1000, -68.066
 597.2000, -65.731
 597.3000, -68.076
 597.4000, -66.623
 597.5000, -67.011
 597.6000, -67.534
 597.7000, -67.933
 597.8000, -67.045
 597.9000, -67.416
 598.0000, -65.991
 598.1000, -67.174
 598.2000, -67.060
 598.3000, -68.564
 598.4000, -66.622
 598.5000, -67.031
 598.6000, -67.570
 598.7000, -69.414
 598.8000, -66.309
 598.9000, -67.400
 599.0000, -66.555
 599.1000, -68.519
 599.2000, -67.036
 599.3000, -66.763
 599.4000, -66.772
 599.5000, -67.154
 599.6000, -67.399
 599.7000, -66.117
 599.8000, -67.005
 599.9000, -67.716
 600.0000, -68.066
 600.1000, -67.790
 600.2000, -66.455
 600.3000, -67.725
 600.4000, -67.212
 600.5000, -67.412
 600.6000, -65.213
 600.7000, -67.044
 600.8000, -66.749
 600.9000, -68.221
 601.0000, -67.382
 601.1000, -68.352
 601.2000, -66.174
 601.3000, -67.025
 601.4000, -67.837
 601.5000, -67.633
 601.6000, -66.238
 601.7000, -67.802
 601.8000, -66.653
 601.9000, -66.539
 602.0000, -67.590
 602.1000, -66.723
 602.2000, -67.586
 602.3000, -68.051
 602.4000, -66.620
 602.5000, -67.867
 602.6000, -67.323
 602.7000, -69.531
 602.8000, -65.629
 602.9000, -66.947
 603.0000, -67.285
 603.1000, -68.485
 603.2000, -66.791
 603.3000, -66.727
 603.4000, -67.077
 603.5000, -67.810
 603.6000, -67.503
 603.7000, -66.342
 603.8000, -67.985
 603.9000, -67.152
 604.0000, -68.216
 604.1000, -66.146
 604.2000, -67.507
 604.3000, -66.875
 604.4000, -66.725
 604.5000, -68.346
 604.6000, -67.311
 604.7000, -66.618
 604.8000, -67.002
 604.9000, -67.061
 605.0000, -67.114
 605.1000, -67.324
 605.2000, -67.492
 605.3000, -67.307
 605.4000, -66.787
 605.5000, -67.348
 605.6000, -66.028
 605.7000, -67.359
 605.8000, -68.243
 605.9000, -66.646
 606.0000, -68.337
 606.1000, -67.538
 606.2000, -67.992
 606.3000, -66.643
 606.4000, -66.817
 606.5000, -68.539
 606.6000, -68.528
 606.7000, -67.901
 606.8000, -66.520
 606.9000, -66.651
 607.0000, -66.567
 607.1000, -66.758
 607.2000, -66.681
 607.3000, -68.318
 607.4000, -66.648
 607.5000, -68.068
 607.6000, -66.100
 607.7000, -66.237
 607.8000, -66.933
 607.9000, -67.565
 608.0000, -67.815
 608.1000, -66.692
 608.2000, -66.127
 608.3000, -67.406
 608.4000, -67.302
 608.5000, -67.386
 608.6000, -67.065
 608.7000, -66.221
 608.8000, -68.276
 608.9000, -66.147
 609.0000, -68.000
 609.1000, -67.459
 609.2000, -67.241
 609.3000, -67.955
 609.4000, -65.866
 609.5000, -68.683
 609.6000, -66.832
 609.7000, -67.967
 609.8000, -67.804
 609.9000, -65.904
 610.0000, -67.033
 610.1000, -68.316
 610.2000, -67.152
 610.3000, -68.775
 610.4000, -67.369
 610.5000, -67.374
 610.6000, -67.296
 610.7000, -66.874
 610.8000, -67.582
 610.9000, -66.517
 611.0000, -67.776
 611.1000, -66.569
 611.2000, -67.614
 611.3000, -67.389
 611.4000, -67.348
 611.5000, -68.140
 611.6000, -67.191
 611.7000, -66.473
 611.8000, -66.990
 611.9000, -67.812
 612.0000, -65.857
 612.1000, -68.282
 612.2000, -66.201
 612.3000, -68.214
 612.4000, -67.430
 612.5000, -66.566
 612.6000, -68.272
 612.7000, -66.360
 612.8000, -67.571
 612.9000, -65.938
 613.0000, -67.708
 613.1000, -66.911
 613.2000, -67.325
 613.3000, -67.505
 613.4000, -67.394
 613.5000, -67.484
 613.6000, -69.478
 613.7000, -66.937
 613.8000, -66.372
 613.9000, -68.987
 614.0000, -67.276
 614.1000, -69.630
 614.2000, -66.778
 614.3000, -68.341
 614.4000, -66.422
 614.5000, -68.610
 614.6000, -67.511
 614.7000, -66.634
 614.8000, -67.137
 614.9000, -67.940
 615.0000, -67.808
 615.1000, -66.763
 615.2000, -66.823
 615.3000, -67.295
 615.4000, -67.685
 615.5000, -66.945
 615.6000, -68.560
 615.7000, -66.474
 615.8000, -68.367
 615.9000, -68.344
 616.0000, -66.083
 616.1000, -68.406
 616.2000, -66.833
 616.3000, -69.257
 616.4000, -66.279
 616.5000, -67.102
 616.6000, -68.514
 616.7000, -67.724
 616.8000, -67.419
 616.9000, -67.876
 617.0000, -66.571
 617.1000, -68.702
 617.2000, -67.989
 617.3000, -66.147
 617.4000, -66.969
 617.5000, -67.933
 617.6000, -68.639
 617.7000, -67.441
 617.8000, -67.352
 617.9000, -66.736
 618.0000, -68.258
 618.1000, -67.163
 618.2000, -67.387
 618.3000, -67.242
 618.4000, -67.693
 618.5000, -68.133
 618.6000, -67.322
 618.7000, -67.211
 618.8000, -67.935
 618.9000, -67.892
 619.0000, -66.698
 619.1000, -68.259
 619.2000, -67.299
 619.3000, -68.312
 619.4000, -67.789
 619.5000, -66.952
 619.6000, -68.588
 619.7000, -67.409
 619.8000, -67.827
 619.9000, -67.651
 620.0000, -67.187
 620.1000, -67.441
 620.2000, -68.824
 620.3000, -67.767
 620.4000, -67.920
 620.5000, -67.064
 620.6000, -68.529
 620.7000, -67.897
 620.8000, -67.786
 620.9000, -68.436
 621.0000, -66.895
 621.1000, -69.101
 621.2000, -66.005
 621.3000, -68.123
 621.4000, -67.707
 621.5000, -68.063
 621.6000, -68.520
 621.7000, -67.403
 621.8000, -66.964
 621.9000, -69.109
 622.0000, -67.449
 622.1000, -66.123
 622.2000, -68.073
 622.3000, -67.668
 622.4000, -69.057
 622.5000, -66.562
 622.6000, -68.390
 622.7000, -66.451
 622.8000, -68.322
 622.9000, -70.113
 623.0000, -66.217
 623.1000, -67.669
 623.2000, -67.778
 623.3000, -69.212
 623.4000, -67.993
 623.5000, -67.074
 623.6000, -67.750
 623.7000, -68.168
 623.8000, -67.997
 623.9000, -67.853
 624.0000, -67.672
 624.1000, -68.968
 624.2000, -68.369
 624.3000, -66.732
 624.4000, -68.887
 624.5000, -67.292
 624.6000, -68.758
 624.7000, -68.520
 624.8000, -66.918
 624.9000, -68.510
 625.0000, -69.264
 625.1000, -68.675
 625.2000, -66.714
 625.3000, -68.086
 625.4000, -68.008
 625.5000, -67.924
 625.6000, -67.887
 625.7000, -67.454
 625.8000, -67.292
 625.9000, -70.534
 626.0000, -67.606
 626.1000, -68.394
 626.2000, -66.860
 626.3000, -68.032
 626.4000, -69.015
 626.5000, -66.466
 626.6000, -67.698
 626.7000, -68.027
 626.8000, -68.364
 626.9000, -67.720
 627.0000, -67.735
 627.1000, -67.833
 627.2000, -68.485
 627.3000, -67.697
 627.4000, -68.123
 627.5000, -67.119
 627.6000, -68.778
 627.7000, -68.183
 627.8000, -67.876
 627.9000, -68.084
 628.0000, -68.231
 628.1000, -69.083
 628.2000, -68.074
 628.3000, -67.839
 628.4000, -67.511
 628.5000, -69.473
 628.6000, -68.466
 628.7000, -67.394
 628.8000, -67.200
 628.9000, -68.791
 629.0000, -68.146
 629.1000, -67.814
 629.2000, -68.007
 629.3000, -67.061
 629.4000, -68.938
 629.5000, -67.251
 629.6000, -69.404
 629.7000, -66.186
 629.8000, -68.029
 629.9000, -68.206
 630.0000, -67.930
 630.1000, -67.776
 630.2000, -68.447
 630.3000, -68.409
 630.4000, -67.321
 630.5000, -68.251
 630.6000, -68.458
 630.7000, -68.236
 630.8000, -67.754
 630.9000, -67.325
 631.0000, -68.100
 631.1000, -69.002
 631.2000, -68.770
 631.3000, -67.120
 631.4000, -67.247
 631.5000, -68.974
 631.6000, -68.077
 631.7000, -67.646
 631.8000, -67.434
 631.9000, -68.644
 632.0000, -68.767
 632.1000, -69.126
 632.2000, -68.509
 632.3000, -67.897
 632.4000, -68.034
 632.5000, -68.869
 632.6000, -68.028
 632.7000, -67.952
 632.8000, -68.725
 632.9000, -69.898
 633.0000, -67.154
 633.1000, -68.458
 633.2000, -68.041
 633.3000, -68.863
 633.4000, -68.265
 633.5000, -68.607
 633.6000, -67.534
 633.7000, -68.459
 633.8000, -68.060
 633.9000, -68.633
 634.0000, -67.943
 634.1000, -69.143
 634.2000, -68.213
 634.3000, -67.858
 634.4000, -69.428
 634.5000, -68.492
 634.6000, -70.557
 634.7000, -68.044
 634.8000, -67.620
 634.9000, -68.200
 635.0000, -70.039
 635.1000, -68.026
 635.2000, -68.206
 635.3000, -68.972
 635.4000, -69.078
 635.5000, -68.860
 635.6000, -67.857
 635.7000, -68.601
 635.8000, -69.031
 635.9000, -70.414
 636.0000, -68.454
 636.1000, -68.400
 636.2000, -67.742
 636.3000, -68.589
 636.4000, -68.850
 636.5000, -68.745
 636.6000, -68.229
 636.7000, -69.221
 636.8000, -68.296
 636.9000, -68.771
 637.0000, -68.328
 637.1000, -69.236
 637.2000, -68.633
 637.3000, -68.205
 637.4000, -69.572
 637.5000, -68.086
 637.6000, -69.746
 637.7000, -69.272
 637.8000, -67.600
 637.9000, -69.240
 638.0000, -69.101
 638.1000, -69.934
 638.2000, -67.636
 638.3000, -68.183
 638.4000, -68.785
 638.5000, -68.630
 638.6000, -68.179
 638.7000, -68.922
 638.8000, -67.084
 638.9000, -70.437
 639.0000, -67.569
 639.1000, -69.853
 639.2000, -67.695
 639.3000, -69.550
 639.4000, -70.407
 639.5000, -67.341
 639.6000, -68.065
 639.7000, -69.738
 639.8000, -68.284
 639.9000, -69.396
 640.0000, -68.758
 640.1000, -68.623
 640.2000, -69.150
 640.3000, -68.645
 640.4000, -68.500
 640.5000, -68.612
 640.6000, -69.110
 640.7000, -67.840
 640.8000, -67.731
 640.9000, -69.114
 641.0000, -69.153
 641.1000, -68.849
 641.2000, -67.579
 641.3000, -68.475
 641.4000, -67.246
 641.5000, -67.001
 641.6000, -66.931
 641.7000, -67.118
 641.8000, -66.634
 641.9000, -67.974
 642.0000, -67.012
 642.1000, -66.625
 642.2000, -66.808
 642.3000, -66.369
 642.4000, -67.580
 642.5000, -65.547
 642.6000, -65.993
 642.7000, -65.359
 642.8000, -65.650
 642.9000, -65.021
 643.0000, -64.991
 643.1000, -64.884
 643.2000, -65.031
 643.3000, -64.389
 643.4000, -64.774
 643.5000, -64.161
 643.6000, -64.435
 643.7000, -64.606
 643.8000, -63.518
 643.9000, -64.126
 644.0000, -63.769
 644.1000, -64.184
 644.2000, -63.589
 644.3000, -63.754
 644.4000, -63.411
 644.5000, -62.967
 644.6000, -62.752
 644.7000, -62.541
 644.8000, -62.006
 644.9000, -62.438
 645.0000, -62.271
 645.1000, -61.754
 645.2000, -62.042
 645.3000, -61.717
 645.4000, -61.541
 645.5000, -61.053
 645.6000, -60.702
 645.7000, -60.697
 645.8000, -60.629
 645.9000, -60.766
 646.0000, -60.520
 646.1000, -60.448
 646.2000, -60.151
 646.3000, -60.314
 646.4000, -59.927
 646.5000, -59.789
 646.6000, -59.770
 646.7000, -59.679
 646.8000, -59.695
 646.9000, -59.690
 647.0000, -59.781
 647.1000, -60.302
 647.2000, -60.271
 647.3000, -60.337
 647.4000, -60.126
 647.5000, -60.269
 647.6000, -60.209
 647.7000, -59.814
 647.8000, -59.637
 647.9000, -59.465
 648.0000, -59.130
 648.1000, -58.852
 648.2000, -58.540
 648.3000, -58.270
 648.4000, -58.180
 648.5000, -58.051
 648.6000, -57.803
 648.7000, -57.823
 648.8000, -57.815
 648.9000, -57.765
 649.0000, -57.468
 649.1000, -57.574
 649.2000, -57.490
 649.3000, -57.681
 649.4000, -57.413
 649.5000, -57.219
 649.6000, -56.940
 649.7000, -56.829
 649.8000, -56.762
 649.9000, -56.835
 650.0000, -57.075
 650.1000, -57.429
 650.2000, -57.507
 650.3000, -57.352
 650.4000, -57.034
 650.5000, -56.677
 650.6000, -56.328
 650.7000, -55.828
 650.8000, -55.624
 650.9000, -55.443
 651.0000, -55.574
 651.1000, -55.653
 651.2000, -55.909
 651.3000, -56.137
 651.4000, -56.315
 651.5000, -56.458
 651.6000, -56.256
 651.7000, -55.943
 651.8000, -55.703
 651.9000, -55.319
 652.0000, -54.871
 652.1000, -54.734
 652.2000, -54.640
 652.3000, -54.707
 652.4000, -54.639
 652.5000, -54.696
 652.6000, -54.547
 652.7000, -54.395
 652.8000, -54.242
 652.9000, -54.142
 653.0000, -54.032
 653.1000, -53.978
 653.2000, -53.846
 653.3000, -53.781
 653.4000, -53.749
 653.5000, -53.772
 653.6000, -53.932
 653.7000, -53.994
 653.8000, -54.100
 653.9000, -53.863
 654.0000, -53.584
 654.1000, -53.211
 654.2000, -52.874
 654.3000, -52.732
 654.4000, -52.811
 654.5000, -52.957
 654.6000, -53.062
 654.7000, -52.994
 654.8000, -52.816
 654.9000, -52.535
 655.0000, -52.189
 655.1000, -51.928
 655.2000, -51.598
 655.3000, -51.352
 655.4000, -51.031
 655.5000, -50.843
 655.6000, -50.686
 655.7000, -50.597
 655.8000, -50.631
 655.9000, -50.685
 656.0000, -50.681
 656.1000, -50.611
 656.2000, -50.491
 656.3000, -50.458
 656.4000, -50.449
 656.5000, -50.586
 656.6000, -50.695
 656.7000, -50.614
 656.8000, -50.418
 656.9000, -50.049
 657.0000, -49.759
 657.1000, -49.516
 657.2000, -49.388
 657.3000, -49.294
 657.4000, -49.158
 657.5000, -49.027
 657.6000, -48.981
 657.7000, -49.028
 657.8000, -49.233
 657.9000, -49.502
 658.0000, -49.758
 658.1000, -49.924
 658.2000, -49.977
 658.3000, -49.927
 658.4000, -49.812
 658.5000, -49.698
 658.6000, -49.603
 658.7000, -49.541
 658.8000, -49.490
 658.9000, -49.477
 659.0000, -49.463
 659.1000, -49.567
 659.2000, -49.582
 659.3000, -49.668
 659.4000, -49.657
 659.5000, -49.548
 659.6000, -49.376
 659.7000, -49.262
 659.8000, -49.296
 659.9000, -49.362
 660.0000, -49.446
 660.1000, -49.517
 660.2000, -49.491
 660.3000, -49.303
 660.4000, -49.025
 660.5000, -48.715
 660.6000, -48.498
 660.7000, -48.237
 660.8000, -47.935
 660.9000, -47.537
 661.0000, -47.177
 661.1000, -46.839
 661.2000, -46.559
 661.3000, -46.358
 661.4000, -46.195
 661.5000, -46.086
 661.6000, -45.998
 661.7000, -46.064
 661.8000, -46.216
 661.9000, -46.454
 662.0000, -46.734
 662.1000, -46.969
 662.2000, -47.198
 662.3000, -47.331
 662.4000, -47.381
 662.5000, -47.243
 662.6000, -47.000
 662.7000, -46.768
 662.8000, -46.581
 662.9000, -46.533
 663.0000, -46.669
 663.1000, -46.966
 663.2000, -47.392
 663.3000, -47.709
 663.4000, -47.844
 663.5000, -47.608
 663.6000, -47.218
 663.7000, -46.820
 663.8000, -46.517
 663.9000, -46.363
 664.0000, -46.444
 664.1000, -46.661
 664.2000, -46.934
 664.3000, -47.169
 664.4000, -47.289
 664.5000, -47.190
 664.6000, -47.017
 664.7000, -46.849
 664.8000, -46.650
 664.9000, -46.521
 665.0000, -46.364
 665.1000, -46.146
 665.2000, -46.014
 665.3000, -45.975
 665.4000, -46.030
 665.5000, -46.076
 665.6000, -46.114
 665.7000, -46.096
 665.8000, -46.001
 665.9000, -45.995
 666.0000, -45.904
 666.1000, -45.759
 666.2000, -45.530
 666.3000, -45.366
 666.4000, -45.355
 666.5000, -45.487
 666.6000, -45.713
 666.7000, -45.951
 666.8000, -46.127
 666.9000, -46.169
 667.0000, -46.076
 667.1000, -45.945
 667.2000, -45.882
 667.3000, -45.862
 667.4000, -45.893
 667.5000, -45.910
 667.6000, -45.832
 667.7000, -45.647
 667.8000, -45.431
 667.9000, -45.188
 668.0000, -45.023
 668.1000, -44.895
 668.2000, -44.888
 668.3000, -44.930
 668.4000, -45.053
 668.5000, -45.137
 668.6000, -45.344
 668.7000, -45.565
 668.8000, -45.729
 668.9000, -45.831
 669.0000, -45.823
 669.1000, -45.700
 669.2000, -45.627
 669.3000, -45.584
 669.4000, -45.631
 669.5000, -45.738
 669.6000, -45.826
 669.7000, -45.829
 669.8000, -45.809
 669.9000, -45.702
 670.0000, -45.582
 670.1000, -45.435
 670.2000, -45.360
 670.3000, -45.401
 670.4000, -45.528
 670.5000, -45.670
 670.6000, -45.834
 670.7000, -45.959
 670.8000, -46.116
 670.9000, -46.269
 671.0000, -46.400
 671.1000, -46.393
 671.2000, -46.228
 671.3000, -45.870
 671.4000, -45.546
 671.5000, -45.350
 671.6000, -45.347
 671.7000, -45.505
 671.8000, -45.629
 671.9000, -45.527
 672.0000, -45.179
 672.1000, -44.764
 672.2000, -44.424
 672.3000, -44.302
 672.4000, -44.342
 672.5000, -44.516
 672.6000, -44.676
 672.7000, -44.791
 672.8000, -44.890
 672.9000, -45.008
 673.0000, -45.146
 673.1000, -45.273
 673.2000, -45.291
 673.3000, -45.225
 673.4000, -45.078
 673.5000, -44.946
 673.6000, -44.836
 673.7000, -44.715
 673.8000, -44.717
 673.9000, -44.853
 674.0000, -45.052
 674.1000, -45.409
 674.2000, -45.628
 674.3000, -45.669
 674.4000, -45.577
 674.5000, -45.324
 674.6000, -45.074
 674.7000, -44.927
 674.8000, -44.953
 674.9000, -45.163
 675.0000, -45.398
 675.1000, -45.555
 675.2000, -45.546
 675.3000, -45.377
 675.4000, -45.172
 675.5000, -45.099
 675.6000, -45.254
 675.7000, -45.567
 675.8000, -45.892
 675.9000, -46.162
 676.0000, -46.199
 676.1000, -45.998
 676.2000, -45.592
 676.3000, -45.161
 676.4000, -44.806
 676.5000, -44.596
 676.6000, -44.619
 676.7000, -44.826
 676.8000, -45.109
 676.9000, -45.410
 677.0000, -45.672
 677.1000, -45.835
 677.2000, -46.046
 677.3000, -46.170
 677.4000, -46.312
 677.5000, -46.303
 677.6000, -46.195
 677.7000, -46.137
 677.8000, -46.090
 677.9000, -46.059
 678.0000, -46.025
 678.1000, -45.893
 678.2000, -45.682
 678.3000, -45.476
 678.4000, -45.431
 678.5000, -45.441
 678.6000, -45.548
 678.7000, -45.684
 678.8000, -45.635
 678.9000, -45.463
 679.0000, -45.132
 679.1000, -44.747
 679.2000, -44.381
 679.3000, -44.144
 679.4000, -43.938
 679.5000, -43.829
 679.6000, -43.796
 679.7000, -43.782
 679.8000, -43.829
 679.9000, -43.844
 680.0000, -43.864
 680.1000, -43.960
 680.2000, -44.129
 680.3000, -44.395
 680.4000, -44.803
 680.5000, -45.024
 680.6000, -45.066
 680.7000, -44.881
 680.8000, -44.521
 680.9000, -44.185
 681.0000, -43.937
 681.1000, -43.786
 681.2000, -43.642
 681.3000, -43.528
 681.4000, -43.384
 681.5000, -43.197
 681.6000, -43.078
 681.7000, -42.993
 681.8000, -42.864
 681.9000, -42.771
 682.0000, -42.821
 682.1000, -42.971
 682.2000, -43.299
 682.3000, -43.630
 682.4000, -43.956
 682.5000, -44.100
 682.6000, -44.141
 682.7000, -44.163
 682.8000, -44.092
 682.9000, -44.090
 683.0000, -44.025
 683.1000, -43.973
 683.2000, -43.960
 683.3000, -43.922
 683.4000, -43.842
 683.5000, -43.727
 683.6000, -43.607
 683.7000, -43.512
 683.8000, -43.502
 683.9000, -43.565
 684.0000, -43.649
 684.1000, -43.676
 684.2000, -43.712
 684.3000, -43.679
 684.4000, -43.590
 684.5000, -43.399
 684.6000, -43.026
 684.7000, -42.629
 684.8000, -42.405
 684.9000, -42.257
 685.0000, -42.229
 685.1000, -42.347
 685.2000, -42.455
 685.3000, -42.479
 685.4000, -42.434
 685.5000, -42.309
 685.6000, -42.094
 685.7000, -41.869
 685.8000, -41.661
 685.9000, -41.515
 686.0000, -41.420
 686.1000, -41.439
 686.2000, -41.477
 686.3000, -41.563
 686.4000, -41.725
 686.5000, -41.775
 686.6000, -41.761
 686.7000, -41.663
 686.8000, -41.555
 686.9000, -41.522
 687.0000, -41.527
 687.1000, -41.633
 687.2000, -41.844
 687.3000, -42.040
 687.4000, -42.163
 687.5000, -42.257
 687.6000, -42.310
 687.7000, -42.351
 687.8000, -42.354
 687.9000, -42.381
 688.0000, -42.558
 688.1000, -42.666
 688.2000, -42.706
 688.3000, -42.668
 688.4000, -42.481
 688.5000, -42.177
 688.6000, -41.884
 688.7000, -41.762
 688.8000, -41.799
 688.9000, -41.882
 689.0000, -41.974
 689.1000, -42.032
 689.2000, -42.167
 689.3000, -42.352
 689.4000, -42.668
 689.5000, -42.950
 689.6000, -43.002
 689.7000, -42.843
 689.8000, -42.411
 689.9000, -41.972
 690.0000, -41.615
 690.1000, -41.443
 690.2000, -41.390
 690.3000, -41.419
 690.4000, -41.557
 690.5000, -41.770
 690.6000, -41.987
 690.7000, -42.290
 690.8000, -42.539
 690.9000, -42.601
 691.0000, -42.501
 691.1000, -42.407
 691.2000, -42.256
 691.3000, -42.105
 691.4000, -41.915
 691.5000, -41.764
 691.6000, -41.575
 691.7000, -41.421
 691.8000, -41.403
 691.9000, -41.439
 692.0000, -41.586
 692.1000, -41.780
 692.2000, -42.124
 692.3000, -42.420
 692.4000, -42.638
 692.5000, -42.597
 692.6000, -42.322
 692.7000, -41.942
 692.8000, -41.594
 692.9000, -41.437
 693.0000, -41.534
 693.1000, -41.798
 693.2000, -42.104
 693.3000, -42.299
 693.4000, -42.359
 693.5000, -42.398
 693.6000, -42.572
 693.7000, -42.639
 693.8000, -42.677
 693.9000, -42.422
 694.0000, -42.050
 694.1000, -41.713
 694.2000, -41.567
 694.3000, -41.516
 694.4000, -41.596
 694.5000, -41.655
 694.6000, -41.575
 694.7000, -41.407
 694.8000, -41.335
 694.9000, -41.304
 695.0000, -41.394
 695.1000, -41.546
 695.2000, -41.756
 695.3000, -41.849
 695.4000, -41.800
 695.5000, -41.770
 695.6000, -41.719
 695.7000, -41.716
 695.8000, -41.821
 695.9000, -41.850
 696.0000, -41.730
 696.1000, -41.388
 696.2000, -40.970
 696.3000, -40.699
 696.4000, -40.654
 696.5000, -40.817
 696.6000, -41.151
 696.7000, -41.590
 696.8000, -41.901
 696.9000, -42.020
 697.0000, -42.022
 697.1000, -41.798
 697.2000, -41.547
 697.3000, -41.263
 697.4000, -41.012
 697.5000, -40.835
 697.6000, -40.798
 697.7000, -40.923
 697.8000, -41.194
 697.9000, -41.443
 698.0000, -41.606
 698.1000, -41.746
 698.2000, -41.914
 698.3000, -42.189
 698.4000, -42.456
 698.5000, -42.565
 698.6000, -42.409
 698.7000, -41.984
 698.8000, -41.573
 698.9000, -41.214
 699.0000, -41.077
 699.1000, -41.043
 699.2000, -41.149
 699.3000, -41.341
 699.4000, -41.673
 699.5000, -42.028
 699.6000, -42.201
 699.7000, -42.168
 699.8000, -41.987
 699.9000, -41.753
 700.0000, -41.471
 700.1000, -41.390
 700.2000, -41.326
 700.3000, -41.301
 700.4000, -41.450
 700.5000, -41.678
 700.6000, -42.036
 700.7000, -42.447
 700.8000, -42.649
 700.9000, -42.616
 701.0000, -42.518
 701.1000, -42.446
 701.2000, -42.439
 701.3000, -42.453
 701.4000, -42.355
 701.5000, -42.177
 701.6000, -41.847
 701.7000, -41.657
 701.8000, -41.655
 701.9000, -41.750
 702.0000, -41.874
 702.1000, -41.966
 702.2000, -41.847
 702.3000, -41.507
 702.4000, -41.336
 702.5000, -41.301
 702.6000, -41.421
 702.7000, -41.765
 702.8000, -42.061
 702.9000, -42.261
 703.0000, -42.294
 703.1000, -42.142
 703.2000, -41.953
 703.3000, -41.882
 703.4000, -41.916
 703.5000, -41.905
 703.6000, -41.784
 703.7000, -41.682
 703.8000, -41.572
 703.9000, -41.511
 704.0000, -41.531
 704.1000, -41.561
 704.2000, -41.521
 704.3000, -41.378
 704.4000, -41.164
 704.5000, -41.061
 704.6000, -41.060
 704.7000, -41.177
 704.8000, -41.407
 704.9000, -41.637
 705.0000, -41.813
 705.1000, -41.880
 705.2000, -41.832
 705.3000, -41.760
 705.4000, -41.764
 705.5000, -41.963
 705.6000, -42.325
 705.7000, -42.716
 705.8000, -43.076
 705.9000, -43.203
 706.0000, -43.177
 706.1000, -43.149
 706.2000, -43.064
 706.3000, -42.917
 706.4000, -42.729
 706.5000, -42.435
 706.6000, -42.100
 706.7000, -41.909
 706.8000, -41.948
 706.9000, -42.138
 707.0000, -42.406
 707.1000, -42.398
 707.2000, -42.127
 707.3000, -41.787
 707.4000, -41.500
 707.5000, -41.420
 707.6000, -41.555
 707.7000, -41.893
 707.8000, -42.291
 707.9000, -42.582
 708.0000, -42.669
 708.1000, -42.457
 708.2000, -42.163
 708.3000, -42.036
 708.4000, -42.147
 708.5000, -42.419
 708.6000, -42.765
 708.7000, -43.162
 708.8000, -43.418
 708.9000, -43.427
 709.0000, -43.262
 709.1000, -42.952
 709.2000, -42.625
 709.3000, -42.476
 709.4000, -42.582
 709.5000, -42.691
 709.6000, -42.719
 709.7000, -42.488
 709.8000, -42.252
 709.9000, -42.134
 710.0000, -42.180
 710.1000, -42.238
 710.2000, -42.281
 710.3000, -42.291
 710.4000, -42.270
 710.5000, -42.287
 710.6000, -42.429
 710.7000, -42.617
 710.8000, -42.830
 710.9000, -42.845
 711.0000, -42.720
 711.1000, -42.523
 711.2000, -42.371
 711.3000, -42.406
 711.4000, -42.481
 711.5000, -42.548
 711.6000, -42.467
 711.7000, -42.374
 711.8000, -42.370
 711.9000, -42.496
 712.0000, -42.607
 712.1000, -42.512
 712.2000, -42.274
 712.3000, -41.949
 712.4000, -41.818
 712.5000, -41.745
 712.6000, -41.677
 712.7000, -41.727
 712.8000, -41.805
 712.9000, -41.893
 713.0000, -41.912
 713.1000, -41.879
 713.2000, -41.693
 713.3000, -41.557
 713.4000, -41.486
 713.5000, -41.580
 713.6000, -41.704
 713.7000, -41.775
 713.8000, -41.739
 713.9000, -41.498
 714.0000, -41.169
 714.1000, -40.904
 714.2000, -40.796
 714.3000, -41.037
 714.4000, -41.521
 714.5000, -41.969
 714.6000, -42.322
 714.7000, -42.236
 714.8000, -42.012
 714.9000, -41.798
 715.0000, -41.608
 715.1000, -41.438
 715.2000, -41.238
 715.3000, -41.135
 715.4000, -41.058
 715.5000, -41.074
 715.6000, -41.266
 715.7000, -41.538
 715.8000, -41.745
 715.9000, -41.907
 716.0000, -42.094
 716.1000, -42.201
 716.2000, -42.252
 716.3000, -42.195
 716.4000, -42.081
 716.5000, -42.054
 716.6000, -42.149
 716.7000, -42.550
 716.8000, -43.015
 716.9000, -43.357
 717.0000, -43.266
 717.1000, -42.762
 717.2000, -42.149
 717.3000, -41.596
 717.4000, -41.321
 717.5000, -41.255
 717.6000, -41.339
 717.7000, -41.525
 717.8000, -41.777
 717.9000, -41.947
 718.0000, -42.048
 718.1000, -42.119
 718.2000, -42.064
 718.3000, -42.070
 718.4000, -42.093
 718.5000, -42.100
 718.6000, -41.947
 718.7000, -41.637
 718.8000, -41.230
 718.9000, -40.905
 719.0000, -40.766
 719.1000, -40.967
 719.2000, -41.322
 719.3000, -41.547
 719.4000, -41.573
 719.5000, -41.301
 719.6000, -40.771
 719.7000, -40.346
 719.8000, -40.089
 719.9000, -40.040
 720.0000, -40.270
 720.1000, -40.681
 720.2000, -41.190
 720.3000, -41.581
 720.4000, -41.693
 720.5000, -41.453
 720.6000, -41.084
 720.7000, -40.838
 720.8000, -40.780
 720.9000, -40.917
 721.0000, -41.070
 721.1000, -41.151
 721.2000, -40.996
 721.3000, -40.629
 721.4000, -40.264
 721.5000, -39.939
 721.6000, -39.784
 721.7000, -39.786
 721.8000, -40.048
 721.9000, -40.231
 722.0000, -40.256
 722.1000, -40.093
 722.2000, -39.840
 722.3000, -39.746
 722.4000, -39.902
 722.5000, -40.109
 722.6000, -40.174
 722.7000, -40.095
 722.8000, -39.907
 722.9000, -39.821
 723.0000, -39.846
 723.1000, -39.989
 723.2000, -40.234
 723.3000, -40.619
 723.4000, -41.110
 723.5000, -41.548
 723.6000, -41.653
 723.7000, -41.454
 723.8000, -40.992
 723.9000, -40.451
 724.0000, -40.203
 724.1000, -40.116
 724.2000, -40.121
 724.3000, -40.198
 724.4000, -40.192
 724.5000, -40.023
 724.6000, -39.743
 724.7000, -39.462
 724.8000, -39.379
 724.9000, -39.489
 725.0000, -39.754
 725.1000, -40.066
 725.2000, -40.300
 725.3000, -40.319
 725.4000, -40.354
 725.5000, -40.394
 725.6000, -40.539
 725.7000, -40.788
 725.8000, -40.970
 725.9000, -41.066
 726.0000, -40.985
 726.1000, -40.730
 726.2000, -40.354
 726.3000, -39.926
 726.4000, -39.598
 726.5000, -39.384
 726.6000, -39.335
 726.7000, -39.210
 726.8000, -39.102
 726.9000, -38.838
 727.0000, -38.627
 727.1000, -38.449
 727.2000, -38.339
 727.3000, -38.352
 727.4000, -38.506
 727.5000, -38.702
 727.6000, -38.952
 727.7000, -39.126
 727.8000, -39.125
 727.9000, -39.061
 728.0000, -38.931
 728.1000, -38.772
 728.2000, -38.715
 728.3000, -38.574
 728.4000, -38.557
 728.5000, -38.676
 728.6000, -38.851
 728.7000, -39.179
 728.8000, -39.704
 728.9000, -40.275
 729.0000, -40.687
 729.1000, -40.722
 729.2000, -40.330
 729.3000, -39.614
 729.4000, -38.999
 729.5000, -38.706
 729.6000, -38.655
 729.7000, -38.761
 729.8000, -39.045
 729.9000, -39.355
 730.0000, -39.471
 730.1000, -39.495
 730.2000, -39.456
 730.3000, -39.373
 730.4000, -39.418
 730.5000, -39.472
 730.6000, -39.618
 730.7000, -39.624
 730.8000, -39.445
 730.9000, -39.284
 731.0000, -39.233
 731.1000, -39.441
 731.2000, -39.860
 731.3000, -40.156
 731.4000, -40.432
 731.5000, -40.466
 731.6000, -40.048
 731.7000, -39.512
 731.8000, -39.088
 731.9000, -38.808
 732.0000, -38.705
 732.1000, -38.945
 732.2000, -39.513
 732.3000, -40.056
 732.4000, -40.141
 732.5000, -39.879
 732.6000, -39.495
 732.7000, -39.163
 732.8000, -38.962
 732.9000, -38.890
 733.0000, -38.745
 733.1000, -38.588
 733.2000, -38.429
 733.3000, -38.364
 733.4000, -38.343
 733.5000, -38.467
 733.6000, -38.593
 733.7000, -38.954
 733.8000, -39.434
 733.9000, -39.785
 734.0000, -39.732
 734.1000, -39.391
 734.2000, -38.976
 734.3000, -38.719
 734.4000, -38.709
 734.5000, -38.788
 734.6000, -38.972
 734.7000, -39.235
 734.8000, -39.540
 734.9000, -39.984
 735.0000, -40.521
 735.1000, -40.724
 735.2000, -40.642
 735.3000, -40.449
 735.4000, -40.224
 735.5000, -39.989
 735.6000, -39.750
 735.7000, -39.618
 735.8000, -39.672
 735.9000, -39.871
 736.0000, -40.177
 736.1000, -40.570
 736.2000, -40.824
 736.3000, -40.818
 736.4000, -40.749
 736.5000, -40.574
 736.6000, -40.283
 736.7000, -39.925
 736.8000, -39.655
 736.9000, -39.597
 737.0000, -39.595
 737.1000, -39.657
 737.2000, -39.840
 737.3000, -40.098
 737.4000, -40.489
 737.5000, -40.825
 737.6000, -40.813
 737.7000, -40.698
 737.8000, -40.668
 737.9000, -40.841
 738.0000, -41.165
 738.1000, -41.361
 738.2000, -41.193
 738.3000, -40.829
 738.4000, -40.441
 738.5000, -40.229
 738.6000, -40.257
 738.7000, -40.328
 738.8000, -40.420
 738.9000, -40.516
 739.0000, -40.472
 739.1000, -40.226
 739.2000, -40.040
 739.3000, -40.076
 739.4000, -40.314
 739.5000, -40.772
 739.6000, -41.241
 739.7000, -41.476
 739.8000, -41.619
 739.9000, -41.621
 740.0000, -41.496
 740.1000, -41.360
 740.2000, -41.150
 740.3000, -41.019
 740.4000, -40.890
 740.5000, -40.783
 740.6000, -40.573
 740.7000, -40.234
 740.8000, -39.969
 740.9000, -40.010
 741.0000, -40.491
 741.1000, -41.068
 741.2000, -41.562
 741.3000, -41.579
 741.4000, -41.211
 741.5000, -40.984
 741.6000, -41.071
 741.7000, -41.384
 741.8000, -41.634
 741.9000, -41.693
 742.0000, -41.545
 742.1000, -41.403
 742.2000, -41.297
 742.3000, -41.278
 742.4000, -41.358
 742.5000, -41.484
 742.6000, -41.707
 742.7000, -41.871
 742.8000, -41.926
 742.9000, -41.884
 743.0000, -41.907
 743.1000, -42.111
 743.2000, -42.327
 743.3000, -42.482
 743.4000, -42.532
 743.5000, -42.494
 743.6000, -42.329
 743.7000, -41.947
 743.8000, -41.368
 743.9000, -40.977
 744.0000, -40.837
 744.1000, -41.075
 744.2000, -41.512
 744.3000, -41.954
 744.4000, -42.356
 744.5000, -42.610
 744.6000, -42.692
 744.7000, -42.575
 744.8000, -42.291
 744.9000, -42.032
 745.0000, -41.947
 745.1000, -42.041
 745.2000, -42.091
 745.3000, -42.101
 745.4000, -42.001
 745.5000, -41.979
 745.6000, -42.019
 745.7000, -41.952
 745.8000, -41.901
 745.9000, -41.872
 746.0000, -41.974
 746.1000, -42.203
 746.2000, -42.345
 746.3000, -42.245
 746.4000, -42.048
 746.5000, -41.922
 746.6000, -42.124
 746.7000, -42.537
 746.8000, -42.891
 746.9000, -42.963
 747.0000, -42.780
 747.1000, -42.358
 747.2000, -41.998
 747.3000, -41.738
 747.4000, -41.611
 747.5000, -41.656
 747.6000, -41.853
 747.7000, -42.153
 747.8000, -42.428
 747.9000, -42.558
 748.0000, -42.651
 748.1000, -42.650
 748.2000, -42.672
 748.3000, -42.769
 748.4000, -42.666
 748.5000, -42.363
 748.6000, -41.965
 748.7000, -41.663
 748.8000, -41.544
 748.9000, -41.644
 749.0000, -41.931
 749.1000, -42.327
 749.2000, -42.636
 749.3000, -42.872
 749.4000, -42.927
 749.5000, -42.822
 749.6000, -42.546
 749.7000, -42.165
 749.8000, -41.767
 749.9000, -41.450
 750.0000, -41.284
 750.1000, -41.346
 750.2000, -41.514
 750.3000, -41.710
 750.4000, -42.011
 750.5000, -42.271
 750.6000, -42.503
 750.7000, -42.599
 750.8000, -42.604
 750.9000, -42.501
 751.0000, -42.152
 751.1000, -41.820
 751.2000, -41.609
 751.3000, -41.465
 751.4000, -41.627
 751.5000, -41.880
 751.6000, -42.060
 751.7000, -42.111
 751.8000, -42.096
 751.9000, -42.145
 752.0000, -42.193
 752.1000, -42.241
 752.2000, -42.251
 752.3000, -42.183
 752.4000, -42.016
 752.5000, -41.824
 752.6000, -41.662
 752.7000, -41.546
 752.8000, -41.435
 752.9000, -41.441
 753.0000, -41.462
 753.1000, -41.359
 753.2000, -41.257
 753.3000, -41.316
 753.4000, -41.379
 753.5000, -41.552
 753.6000, -41.775
 753.7000, -41.836
 753.8000, -41.745
 753.9000, -41.517
 754.0000, -41.259
 754.1000, -41.032
 754.2000, -41.011
 754.3000, -40.995
 754.4000, -41.095
 754.5000, -41.195
 754.6000, -41.209
 754.7000, -41.223
 754.8000, -41.212
 754.9000, -41.208
 755.0000, -41.195
 755.1000, -41.122
 755.2000, -40.991
 755.3000, -40.893
 755.4000, -40.916
 755.5000, -41.038
 755.6000, -41.176
 755.7000, -41.177
 755.8000, -41.134
 755.9000, -40.901
 756.0000, -40.706
 756.1000, -40.536
 756.2000, -40.329
 756.3000, -40.224
 756.4000, -40.224
 756.5000, -40.392
 756.6000, -40.765
 756.7000, -41.167
 756.8000, -41.359
 756.9000, -41.248
 757.0000, -40.835
 757.1000, -40.426
 757.2000, -39.969
 757.3000, -39.638
 757.4000, -39.470
 757.5000, -39.523
 757.6000, -39.694
 757.7000, -40.005
 757.8000, -40.332
 757.9000, -40.514
 758.0000, -40.639
 758.1000, -40.699
 758.2000, -40.620
 758.3000, -40.507
 758.4000, -40.277
 758.5000, -39.977
 758.6000, -39.811
 758.7000, -39.738
 758.8000, -39.720
 758.9000, -39.780
 759.0000, -39.840
 759.1000, -39.987
 759.2000, -40.207
 759.3000, -40.469
 759.4000, -40.718
 759.5000, -40.888
 759.6000, -40.907
 759.7000, -40.836
 759.8000, -40.594
 759.9000, -40.298
 760.0000, -40.027
 760.1000, -39.898
 760.2000, -39.940
 760.3000, -40.133
 760.4000, -40.281
 760.5000, -40.381
 760.6000, -40.391
 760.7000, -40.397
 760.8000, -40.367
 760.9000, -40.311
 761.0000, -40.289
 761.1000, -40.423
 761.2000, -40.639
 761.3000, -40.870
 761.4000, -40.976
 761.5000, -40.826
 761.6000, -40.545
 761.7000, -40.232
 761.8000, -39.989
 761.9000, -39.816
 762.0000, -39.697
 762.1000, -39.639
 762.2000, -39.595
 762.3000, -39.576
 762.4000, -39.579
 762.5000, -39.673
 762.6000, -39.821
 762.7000, -40.009
 762.8000, -40.178
 762.9000, -40.266
 763.0000, -40.311
 763.1000, -40.283
 763.2000, -40.234
 763.3000, -40.179
 763.4000, -40.130
 763.5000, -40.262
 763.6000, -40.386
 763.7000, -40.460
 763.8000, -40.437
 763.9000, -40.179
 764.0000, -39.816
 764.1000, -39.481
 764.2000, -39.227
 764.3000, -39.245
 764.4000, -39.435
 764.5000, -39.763
 764.6000, -40.128
 764.7000, -40.301
 764.8000, -40.250
 764.9000, -40.055
 765.0000, -39.839
 765.1000, -39.637
 765.2000, -39.509
 765.3000, -39.477
 765.4000, -39.474
 765.5000, -39.445
 765.6000, -39.405
 765.7000, -39.342
 765.8000, -39.324
 765.9000, -39.308
 766.0000, -39.272
 766.1000, -39.202
 766.2000, -39.237
 766.3000, -39.160
 766.4000, -39.115
 766.5000, -39.095
 766.6000, -39.103
 766.7000, -39.119
 766.8000, -39.295
 766.9000, -39.574
 767.0000, -39.748
 767.1000, -39.786
 767.2000, -39.662
 767.3000, -39.456
 767.4000, -39.268
 767.5000, -39.223
 767.6000, -39.246
 767.7000, -39.285
 767.8000, -39.328
 767.9000, -39.318
 768.0000, -39.234
 768.1000, -39.194
 768.2000, -39.213
 768.3000, -39.229
 768.4000, -39.280
 768.5000, -39.338
 768.6000, -39.262
 768.7000, -39.082
 768.8000, -38.914
 768.9000, -38.873
 769.0000, -38.967
 769.1000, -39.229
 769.2000, -39.439
 769.3000, -39.479
 769.4000, -39.327
 769.5000, -39.143
 769.6000, -39.000
 769.7000, -38.956
 769.8000, -39.036
 769.9000, -39.127
 770.0000, -39.212
 770.1000, -39.277
 770.2000, -39.368
 770.3000, -39.556
 770.4000, -39.803
 770.5000, -40.054
 770.6000, -40.144
 770.7000, -40.090
 770.8000, -39.807
 770.9000, -39.523
 771.0000, -39.237
 771.1000, -39.033
 771.2000, -39.041
 771.3000, -39.126
 771.4000, -39.356
 771.5000, -39.542
 771.6000, -39.629
 771.7000, -39.611
 771.8000, -39.572
 771.9000, -39.514
 772.0000, -39.465
 772.1000, -39.425
 772.2000, -39.449
 772.3000, -39.519
 772.4000, -39.717
 772.5000, -39.987
 772.6000, -40.280
 772.7000, -40.479
 772.8000, -40.586
 772.9000, -40.652
 773.0000, -40.555
 773.1000, -40.385
 773.2000, -40.182
 773.3000, -39.997
 773.4000, -39.958
 773.5000, -39.983
 773.6000, -39.958
 773.7000, -40.008
 773.8000, -40.031
 773.9000, -39.923
 774.0000, -39.827
 774.1000, -39.713
 774.2000, -39.646
 774.3000, -39.706
 774.4000, -39.774
 774.5000, -39.845
 774.6000, -39.798
 774.7000, -39.705
 774.8000, -39.600
 774.9000, -39.571
 775.0000, -39.628
 775.1000, -39.697
 775.2000, -39.737
 775.3000, -39.726
 775.4000, -39.672
 775.5000, -39.549
 775.6000, -39.521
 775.7000, -39.672
 775.8000, -39.784
 775.9000, -39.906
 776.0000, -40.014
 776.1000, -39.996
 776.2000, -40.010
 776.3000, -40.091
 776.4000, -40.253
 776.5000, -40.454
 776.6000, -40.619
 776.7000, -40.696
 776.8000, -40.631
 776.9000, -40.507
 777.0000, -40.432
 777.1000, -40.431
 777.2000, -40.529
 777.3000, -40.619
 777.4000, -40.578
 777.5000, -40.482
 777.6000, -40.432
 777.7000, -40.320
 777.8000, -40.324
 777.9000, -40.381
 778.0000, -40.473
 778.1000, -40.542
 778.2000, -40.620
 778.3000, -40.690
 778.4000, -40.605
 778.5000, -40.560
 778.6000, -40.578
 778.7000, -40.735
 778.8000, -40.956
 778.9000, -41.341
 779.0000, -41.572
 779.1000, -41.537
 779.2000, -41.519
 779.3000, -41.469
 779.4000, -41.368
 779.5000, -41.294
 779.6000, -41.177
 779.7000, -41.057
 779.8000, -40.964
 779.9000, -40.986
 780.0000, -41.149
 780.1000, -41.340
 780.2000, -41.527
 780.3000, -41.553
 780.4000, -41.444
 780.5000, -41.357
 780.6000, -41.320
 780.7000, -41.292
 780.8000, -41.383
 780.9000, -41.367
 781.0000, -41.340
 781.1000, -41.356
 781.2000, -41.390
 781.3000, -41.436
 781.4000, -41.547
 781.5000, -41.630
 781.6000, -41.642
 781.7000, -41.554
 781.8000, -41.561
 781.9000, -41.547
 782.0000, -41.590
 782.1000, -41.649
 782.2000, -41.553
 782.3000, -41.429
 782.4000, -41.414
 782.5000, -41.504
 782.6000, -41.706
 782.7000, -41.985
 782.8000, -42.102
 782.9000, -42.142
 783.0000, -42.101
 783.1000, -42.051
 783.2000, -41.922
 783.3000, -41.884
 783.4000, -42.002
 783.5000, -41.966
 783.6000, -41.991
 783.7000, -41.958
 783.8000, -41.862
 783.9000, -41.903
 784.0000, -42.018
 784.1000, -42.043
 784.2000, -42.021
 784.3000, -41.935
 784.4000, -41.955
 784.5000, -42.038
 784.6000, -42.154
 784.7000, -42.272
 784.8000, -42.273
 784.9000, -42.330
 785.0000, -42.297
 785.1000, -42.257
 785.2000, -42.232
 785.3000, -42.177
 785.4000, -42.147
 785.5000, -42.167
 785.6000, -42.225
 785.7000, -42.220
 785.8000, -42.219
 785.9000, -42.199
 786.0000, -42.242
 786.1000, -42.267
 786.2000, -42.353
 786.3000, -42.373
 786.4000, -42.316
 786.5000, -42.308
 786.6000, -42.208
 786.7000, -42.166
 786.8000, -42.220
 786.9000, -42.224
 787.0000, -42.207
 787.1000, -42.187
 787.2000, -42.137
 787.3000, -42.230
 787.4000, -42.342
 787.5000, -42.325
 787.6000, -42.331
 787.7000, -42.232
 787.8000, -42.194
 787.9000, -42.087
 788.0000, -41.990
 788.1000, -41.937
 788.2000, -41.943
 788.3000, -42.042
 788.4000, -42.142
 788.5000, -42.193
 788.6000, -42.196
 788.7000, -42.107
 788.8000, -42.012
 788.9000, -42.023
 789.0000, -42.013
 789.1000, -42.027
 789.2000, -42.032
 789.3000, -41.991
 789.4000, -41.922
 789.5000, -41.878
 789.6000, -41.891
 789.7000, -41.889
 789.8000, -41.882
 789.9000, -41.885
 790.0000, -41.857
 790.1000, -41.849
 790.2000, -41.835
 790.3000, -41.682
 790.4000, -41.564
 790.5000, -41.554
 790.6000, -41.529
 790.7000, -41.644
 790.8000, -41.737
 790.9000, -41.852
 791.0000, -41.873
 791.1000, -41.749
 791.2000, -41.619
 791.3000, -41.415
 791.4000, -41.371
 791.5000, -41.322
 791.6000, -41.368
 791.7000, -41.354
 791.8000, -41.424
 791.9000, -41.517
 792.0000, -41.559
 792.1000, -41.582
 792.2000, -41.410
 792.3000, -41.192
 792.4000, -41.050
 792.5000, -41.037
 792.6000, -41.080
 792.7000, -41.210
 792.8000, -41.318
 792.9000, -41.318
 793.0000, -41.236
 793.1000, -41.139
 793.2000, -41.093
 793.3000, -41.126
 793.4000, -41.160
 793.5000, -41.123
 793.6000, -40.983
 793.7000, -40.816
 793.8000, -40.718
 793.9000, -40.766
 794.0000, -40.775
 794.1000, -40.811
 794.2000, -40.853
 794.3000, -40.803
 794.4000, -40.732
 794.5000, -40.661
 794.6000, -40.549
 794.7000, -40.505
 794.8000, -40.450
 794.9000, -40.404
 795.0000, -40.433
 795.1000, -40.454
 795.2000, -40.519
 795.3000, -40.585
 795.4000, -40.641
 795.5000, -40.544
 795.6000, -40.374
 795.7000, -40.336
 795.8000, -40.372
 795.9000, -40.468
 796.0000, -40.495
 796.1000, -40.434
 796.2000, -40.334
 796.3000, -40.241
 796.4000, -40.233
 796.5000, -40.288
 796.6000, -40.280
 796.7000, -40.198
 796.8000, -40.122
 796.9000, -40.039
 797.0000, -40.006
 797.1000, -40.181
 797.2000, -40.249
 797.3000, -40.254
 797.4000, -40.085
 797.5000, -39.852
 797.6000, -39.631
 797.7000, -39.602
 797.8000, -39.650
 797.9000, -39.707
 798.0000, -39.742
 798.1000, -39.722
 798.2000, -39.730
 798.3000, -39.785
 798.4000, -39.819
 798.5000, -39.845
 798.6000, -39.774
 798.7000, -39.595
 798.8000, -39.464
 798.9000, -39.373
 799.0000, -39.416
 799.1000, -39.451
 799.2000, -39.493
 799.3000, -39.340
 799.4000, -39.232
 799.5000, -39.186
 799.6000, -39.213
 799.7000, -39.337
 799.8000, -39.471
 799.9000, -39.496
 800.0000, -39.332
 800.1000, -39.261
 800.2000, -39.221
 800.3000, -39.269
 800.4000, -39.362
 800.5000, -39.377
 800.6000, -39.346
 800.7000, -39.246
 800.8000, -39.281
 800.9000, -39.426
 801.0000, -39.621
 801.1000, -39.705
 801.2000, -39.609
 801.3000, -39.349
 801.4000, -39.133
 801.5000, -39.060
 801.6000, -39.125
 801.7000, -39.271
 801.8000, -39.321
 801.9000, -39.216
 802.0000, -39.002
 802.1000, -38.928
 802.2000, -38.956
 802.3000, -39.167
 802.4000, -39.301
 802.5000, -39.308
 802.6000, -39.175
 802.7000, -38.996
 802.8000, -38.904
 802.9000, -39.014
 803.0000, -39.159
 803.1000, -39.249
 803.2000, -39.211
 803.3000, -39.024
 803.4000, -38.788
 803.5000, -38.717
 803.6000, -38.858
 803.7000, -38.956
 803.8000, -38.992
 803.9000, -38.878
 804.0000, -38.669
 804.1000, -38.514
 804.2000, -38.566
 804.3000, -38.662
 804.4000, -38.736
 804.5000, -38.738
 804.6000, -38.691
 804.7000, -38.643
 804.8000, -38.698
 804.9000, -38.927
 805.0000, -39.114
 805.1000, -39.243
 805.2000, -39.209
 805.3000, -39.110
 805.4000, -39.070
 805.5000, -39.167
 805.6000, -39.236
 805.7000, -39.235
 805.8000, -39.187
 805.9000, -39.050
 806.0000, -39.044
 806.1000, -39.133
 806.2000, -39.246
 806.3000, -39.308
 806.4000, -39.188
 806.5000, -39.149
 806.6000, -39.070
 806.7000, -39.082
 806.8000, -39.112
 806.9000, -39.193
 807.0000, -39.200
 807.1000, -39.145
 807.2000, -39.091
 807.3000, -39.048
 807.4000, -39.058
 807.5000, -39.147
 807.6000, -39.224
 807.7000, -39.293
 807.8000, -39.225
 807.9000, -39.094
 808.0000, -39.012
 808.1000, -39.086
 808.2000, -39.179
 808.3000, -39.282
 808.4000, -39.366
 808.5000, -39.368
 808.6000, -39.304
 808.7000, -39.298
 808.8000, -39.351
 808.9000, -39.390
 809.0000, -39.415
 809.1000, -39.326
 809.2000, -39.295
 809.3000, -39.177
 809.4000, -39.177
 809.5000, -39.237
 809.6000, -39.322
 809.7000, -39.376
 809.8000, -39.386
 809.9000, -39.434
 810.0000, -39.411
 810.1000, -39.418
 810.2000, -39.349
 810.3000, -39.259
 810.4000, -39.318
 810.5000, -39.432
 810.6000, -39.621
 810.7000, -39.833
 810.8000, -39.960
 810.9000, -39.966
 811.0000, -39.833
 811.1000, -39.651
 811.2000, -39.619
 811.3000, -39.671
 811.4000, -39.791
 811.5000, -40.033
 811.6000, -40.133
 811.7000, -40.138
 811.8000, -40.066
 811.9000, -39.946
 812.0000, -39.859
 812.1000, -39.863
 812.2000, -39.963
 812.3000, -40.059
 812.4000, -40.218
 812.5000, -40.402
 812.6000, -40.521
 812.7000, -40.565
 812.8000, -40.579
 812.9000, -40.568
 813.0000, -40.479
 813.1000, -40.523
 813.2000, -40.654
 813.3000, -40.773
 813.4000, -40.886
 813.5000, -40.881
 813.6000, -40.783
 813.7000, -40.567
 813.8000, -40.431
 813.9000, -40.519
 814.0000, -40.701
 814.1000, -40.849
 814.2000, -41.009
 814.3000, -40.943
 814.4000, -40.852
 814.5000, -40.873
 814.6000, -40.955
 814.7000, -41.086
 814.8000, -41.192
 814.9000, -41.220
 815.0000, -41.134
 815.1000, -41.024
 815.2000, -40.971
 815.3000, -40.926
 815.4000, -40.912
 815.5000, -40.946
 815.6000, -41.081
 815.7000, -41.305
 815.8000, -41.447
 815.9000, -41.495
 816.0000, -41.456
 816.1000, -41.331
 816.2000, -41.306
 816.3000, -41.381
 816.4000, -41.592
 816.5000, -41.665
 816.6000, -41.702
 816.7000, -41.661
 816.8000, -41.585
 816.9000, -41.548
 817.0000, -41.534
 817.1000, -41.571
 817.2000, -41.672
 817.3000, -41.828
 817.4000, -42.011
 817.5000, -42.159
 817.6000, -42.188
 817.7000, -42.193
 817.8000, -42.170
 817.9000, -42.117
 818.0000, -42.085
 818.1000, -42.161
 818.2000, -42.206
 818.3000, -42.376
 818.4000, -42.571
 818.5000, -42.639
 818.6000, -42.674
 818.7000, -42.648
 818.8000, -42.579
 818.9000, -42.505
 819.0000, -42.496
 819.1000, -42.512
 819.2000, -42.561
 819.3000, -42.691
 819.4000, -42.818
 819.5000, -42.968
 819.6000, -43.087
 819.7000, -43.110
 819.8000, -42.967
 819.9000, -42.753
 820.0000, -42.578
 820.1000, -42.527
 820.2000, -42.641
 820.3000, -42.879
 820.4000, -43.096
 820.5000, -43.185
 820.6000, -43.175
 820.7000, -43.008
 820.8000, -42.824
 820.9000, -42.680
 821.0000, -42.660
 821.1000, -42.837
 821.2000, -43.042
 821.3000, -43.190
 821.4000, -43.192
 821.5000, -43.126
 821.6000, -43.064
 821.7000, -43.032
 821.8000, -43.002
 821.9000, -43.061
 822.0000, -43.092
 822.1000, -43.154
 822.2000, -43.145
 822.3000, -43.036
 822.4000, -42.978
 822.5000, -43.074
 822.6000, -43.246
 822.7000, -43.364
 822.8000, -43.405
 822.9000, -43.379
 823.0000, -43.284
 823.1000, -43.287
 823.2000, -43.209
 823.3000, -43.250
 823.4000, -43.322
 823.5000, -43.412
 823.6000, -43.559
 823.7000, -43.669
 823.8000, -43.697
 823.9000, -43.628
 824.0000, -43.538
 824.1000, -43.490
 824.2000, -43.514
 824.3000, -43.533
 824.4000, -43.587
 824.5000, -43.678
 824.6000, -43.748
 824.7000, -43.791
 824.8000, -43.822
 824.9000, -43.843
 825.0000, -43.847
 825.1000, -43.844
 825.2000, -43.799
 825.3000, -43.884
 825.4000, -43.902
 825.5000, -43.959
 825.6000, -44.070
 825.7000, -44.090
 825.8000, -44.026
 825.9000, -44.090
 826.0000, -44.151
 826.1000, -44.195
 826.2000, -44.268
 826.3000, -44.241
 826.4000, -44.101
 826.5000, -44.038
 826.6000, -44.037
 826.7000, -44.109
 826.8000, -44.303
 826.9000, -44.478
 827.0000, -44.579
 827.1000, -44.583
 827.2000, -44.551
 827.3000, -44.469
 827.4000, -44.455
 827.5000, -44.515
 827.6000, -44.638
 827.7000, -44.774
 827.8000, -44.855
 827.9000, -44.812
 828.0000, -44.733
 828.1000, -44.714
 828.2000, -44.653
 828.3000, -44.597
 828.4000, -44.682
 828.5000, -44.775
 828.6000, -44.976
 828.7000, -45.146
 828.8000, -45.245
 828.9000, -45.242
 829.0000, -45.203
 829.1000, -45.203
 829.2000, -45.224
 829.3000, -45.253
 829.4000, -45.230
 829.5000, -45.208
 829.6000, -45.177
 829.7000, -45.180
 829.8000, -45.145
 829.9000, -45.130
 830.0000, -45.063
 830.1000, -45.105
 830.2000, -45.225
 830.3000, -45.378
 830.4000, -45.518
 830.5000, -45.505
 830.6000, -45.481
 830.7000, -45.561
 830.8000, -45.686
 830.9000, -45.909
 831.0000, -46.215
 831.1000, -46.346
 831.2000, -46.372
 831.3000, -46.337
 831.4000, -46.158
 831.5000, -46.046
 831.6000, -46.122
 831.7000, -46.302
 831.8000, -46.441
 831.9000, -46.564
 832.0000, -46.548
 832.1000, -46.488
 832.2000, -46.452
 832.3000, -46.553
 832.4000, -46.626
 832.5000, -46.822
 832.6000, -47.121
 832.7000, -47.331
 832.8000, -47.507
 832.9000, -47.603
 833.0000, -47.690
 833.1000, -47.875
 833.2000, -48.108
 833.3000, -48.316
 833.4000, -48.603
 833.5000, -48.830
 833.6000, -49.026
 833.7000, -49.270
 833.8000, -49.518
 833.9000, -49.854
 834.0000, -50.178
 834.1000, -50.546
 834.2000, -50.901
 834.3000, -51.370
 834.4000, -51.827
 834.5000, -52.400
 834.6000, -52.831
 834.7000, -53.072
 834.8000, -53.271
 834.9000, -53.293
 835.0000, -53.497
 835.1000, -53.779
 835.2000, -54.078
 835.3000, -54.248
 835.4000, -54.361
 835.5000, -54.406
 835.6000, -54.344
 835.7000, -54.347
 835.8000, -54.405
 835.9000, -54.461
 836.0000, -54.520
 836.1000, -54.551
 836.2000, -54.474
 836.3000, -54.486
 836.4000, -54.405
 836.5000, -54.485
 836.6000, -54.301
 836.7000, -54.175
 836.8000, -53.889
 836.9000, -53.678
 837.0000, -53.459
 837.1000, -53.265
 837.2000, -53.140
 837.3000, -52.904
 837.4000, -52.733
 837.5000, -52.516
 837.6000, -52.399
 837.7000, -52.254
 837.8000, -52.150
 837.9000, -52.020
 838.0000, -51.939
 838.1000, -51.928
 838.2000, -51.899
 838.3000, -51.873
 838.4000, -51.879
 838.5000, -51.866
 838.6000, -51.796
 838.7000, -51.791
 838.8000, -51.740
 838.9000, -51.835
 839.0000, -51.841
 839.1000, -51.897
 839.2000, -51.893
 839.3000, -51.850
 839.4000, -51.870
 839.5000, -51.940
 839.6000, -51.978
 839.7000, -52.107
 839.8000, -52.276
 839.9000, -52.440
 840.0000, -52.669
 840.1000, -52.894
 840.2000, -53.013
 840.3000, -53.120
 840.4000, -53.136
 840.5000, -53.141
 840.6000, -53.208
 840.7000, -53.357
 840.8000, -53.514
 840.9000, -53.715
 841.0000, -53.851
 841.1000, -54.078
 841.2000, -54.076
 841.3000, -54.261
 841.4000, -54.508
 841.5000, -54.610
 841.6000, -54.823
 841.7000, -54.893
 841.8000, -54.991
 841.9000, -55.088
 842.0000, -55.291
 842.1000, -55.427
 842.2000, -55.730
 842.3000, -55.960
 842.4000, -56.169
 842.5000, -56.320
 842.6000, -56.523
 842.7000, -56.693
 842.8000, -56.898
 842.9000, -57.056
 843.0000, -57.262
 843.1000, -57.748
 843.2000, -57.754
 843.3000, -58.240
 843.4000, -58.223
 843.5000, -58.452
 843.6000, -58.691
 843.7000, -58.514
 843.8000, -58.841
 843.9000, -58.781
 844.0000, -59.104
 844.1000, -59.339
 844.2000, -59.505
 844.3000, -59.740
 844.4000, -59.927
 844.5000, -60.077
 844.6000, -60.233
 844.7000, -60.376
 844.8000, -60.958
 844.9000, -60.810
 845.0000, -61.455
 845.1000, -61.870
 845.2000, -61.849
 845.3000, -62.416
 845.4000, -62.399
 845.5000, -62.823
 845.6000, -63.002
 845.7000, -63.685
 845.8000, -63.512
 845.9000, -63.853
 846.0000, -64.325
 846.1000, -64.385
 846.2000, -64.824
 846.3000, -64.921
 846.4000, -65.193
 846.5000, -65.132
 846.6000, -65.671
 846.7000, -65.556
 846.8000, -65.951
 846.9000, -65.364
 847.0000, -66.940
 847.1000, -65.636
 847.2000, -66.486
 847.3000, -66.635
 847.4000, -66.362
 847.5000, -67.380
 847.6000, -66.371
 847.7000, -67.534
 847.8000, -66.332
 847.9000, -67.118
 848.0000, -66.917
 848.1000, -67.854
 848.2000, -66.796
 848.3000, -67.145
 848.4000, -67.014
 848.5000, -67.572
 848.6000, -67.203
 848.7000, -67.793
 848.8000, -67.417
 848.9000, -67.045
 849.0000, -68.302
 849.1000, -67.303
 849.2000, -68.906
 849.3000, -67.327
 849.4000, -68.566
 849.5000, -67.617
 849.6000, -68.296
 849.7000, -68.425
 849.8000, -67.489
 849.9000, -68.665
 850.0000, -67.541
 850.1000, -67.923
 850.2000, -68.581
 850.3000, -68.619
 850.4000, -67.645
 850.5000, -68.454
 850.6000, -68.361
 850.7000, -68.790
 850.8000, -67.817
 850.9000, -68.302
 851.0000, -67.854
 851.1000, -69.389
 851.2000, -68.295
 851.3000, -68.483
 851.4000, -69.433
 851.5000, -67.623
 851.6000, -69.025
 851.7000, -67.691
 851.8000, -68.859
 851.9000, -67.605
 852.0000, -68.215
 852.1000, -69.322
 852.2000, -68.085
 852.3000, -68.526
 852.4000, -68.835
 852.5000, -68.890
 852.6000, -68.110
 852.7000, -68.724
 852.8000, -68.489
 852.9000, -68.767
 853.0000, -67.542
 853.1000, -69.247
 853.2000, -67.625
 853.3000, -68.641
 853.4000, -69.242
 853.5000, -68.041
 853.6000, -68.636
 853.7000, -68.513
 853.8000, -69.809
 853.9000, -67.382
 854.0000, -69.368
 854.1000, -68.186
 854.2000, -69.509
 854.3000, -69.023
 854.4000, -68.076
 854.5000, -70.029
 854.6000, -67.596
 854.7000, -68.662
 854.8000, -69.722
 854.9000, -68.513
 855.0000, -68.789
 855.1000, -68.930
 855.2000, -68.092
 855.3000, -69.519
 855.4000, -67.810
 855.5000, -68.867
 855.6000, -68.790
 855.7000, -68.310
 855.8000, -69.301
 855.9000, -67.307
 856.0000, -69.844
 856.1000, -67.807
 856.2000, -70.893
 856.3000, -68.022
 856.4000, -69.342
 856.5000, -68.540
 856.6000, -68.436
 856.7000, -68.939
 856.8000, -68.123
 856.9000, -69.108
 857.0000, -67.943
 857.1000, -68.730
 857.2000, -69.388
 857.3000, -68.591
 857.4000, -67.830
 857.5000, -69.798
 857.6000, -68.114
 857.7000, -69.399
 857.8000, -68.697
 857.9000, -68.607
 858.0000, -68.962
 858.1000, -68.650
 858.2000, -69.372
 858.3000, -68.036
 858.4000, -69.304
 858.5000, -68.650
 858.6000, -69.725
 858.7000, -68.278
 858.8000, -69.281
 858.9000, -68.158
 859.0000, -68.608
 859.1000, -68.798
 859.2000, -68.830
 859.3000, -68.223
 859.4000, -69.036
 859.5000, -68.452
 859.6000, -68.953
 859.7000, -69.777
 859.8000, -68.489
 859.9000, -70.115
 860.0000, -68.060
 860.1000, -68.857
 860.2000, -68.634
 860.3000, -68.416
 860.4000, -69.079
 860.5000, -68.713
 860.6000, -69.552
 860.7000, -68.040
 860.8000, -70.379
 860.9000, -68.773
 861.0000, -69.013
 861.1000, -68.834
 861.2000, -68.980
 861.3000, -69.055
 861.4000, -68.383
 861.5000, -69.072
 861.6000, -68.804
 861.7000, -68.474
 861.8000, -69.023
 861.9000, -68.945
 862.0000, -68.862
 862.1000, -70.574
 862.2000, -68.343
 862.3000, -69.177
 862.4000, -67.681
 862.5000, -69.341
 862.6000, -69.279
 862.7000, -67.889
 862.8000, -70.046
 862.9000, -68.406
 863.0000, -68.803
 863.1000, -69.060
 863.2000, -69.071
 863.3000, -69.868
 863.4000, -68.537
 863.5000, -69.752
 863.6000, -69.643
 863.7000, -68.132
 863.8000, -69.215
 863.9000, -68.208
 864.0000, -69.156
 864.1000, -68.213
 864.2000, -68.452
 864.3000, -68.643
 864.4000, -69.272
 864.5000, -69.647
 864.6000, -67.685
 864.7000, -69.731
 864.8000, -68.850
 864.9000, -68.928
 865.0000, -69.097
 865.1000, -68.360
 865.2000, -70.036
 865.3000, -67.803
 865.4000, -69.069
 865.5000, -69.498
 865.6000, -69.542
 865.7000, -68.798
 865.8000, -69.551
 865.9000, -68.469
 866.0000, -69.232
 866.1000, -68.788
 866.2000, -68.720
 866.3000, -69.391
 866.4000, -68.076
 866.5000, -69.837
 866.6000, -69.397
 866.7000, -69.176
 866.8000, -68.368
 866.9000, -69.819
 867.0000, -68.081
 867.1000, -69.252
 867.2000, -68.011
 867.3000, -68.844
 867.4000, -69.736
 867.5000, -68.154
 867.6000, -69.178
 867.7000, -68.601
 867.8000, -69.122
 867.9000, -69.472
 868.0000, -69.033
 868.1000, -68.442
 868.2000, -69.697
 868.3000, -69.539
 868.4000, -68.613
 868.5000, -68.957
 868.6000, -68.927
 868.7000, -68.801
 868.8000, -68.789
 868.9000, -69.806
 869.0000, -70.060
 869.1000, -69.345
 869.2000, -68.848
 869.3000, -69.881
 869.4000, -69.027
 869.5000, -69.478
 869.6000, -69.414
 869.7000, -68.678
 869.8000, -70.090
 869.9000, -68.309
 870.0000, -69.810
 870.1000, -68.679
 870.2000, -69.694
 870.3000, -69.191
 870.4000, -69.145
 870.5000, -68.949
 870.6000, -68.921
 870.7000, -68.916
 870.8000, -69.330
 870.9000, -69.110
 871.0000, -69.079
 871.1000, -69.821
 871.2000, -68.138
 871.3000, -69.215
 871.4000, -69.186
 871.5000, -69.614
 871.6000, -68.244
 871.7000, -70.463
 871.8000, -67.764
 871.9000, -69.403
 872.0000, -68.610
 872.1000, -69.537
 872.2000, -69.777
 872.3000, -68.184
 872.4000, -69.915
 872.5000, -69.204
 872.6000, -69.417
 872.7000, -68.880
 872.8000, -69.385
 872.9000, -68.552
 873.0000, -68.787
 873.1000, -68.936
 873.2000, -69.733
 873.3000, -68.970
 873.4000, -69.508
 873.5000, -68.380
 873.6000, -69.053
 873.7000, -69.255
 873.8000, -69.754
 873.9000, -69.462
 874.0000, -68.801
 874.1000, -70.276
 874.2000, -68.626
 874.3000, -69.691
 874.4000, -69.069
 874.5000, -68.719
 874.6000, -69.213
 874.7000, -68.938
 874.8000, -69.442
 874.9000, -68.415
 875.0000, -70.380
 875.1000, -68.608
 875.2000, -68.871
 875.3000, -68.927
 875.4000, -70.215
 875.5000, -68.749
 875.6000, -69.349
 875.7000, -69.971
 875.8000, -68.408
 875.9000, -69.867
 876.0000, -69.427
 876.1000, -69.301
 876.2000, -69.639
 876.3000, -69.872
 876.4000, -68.768
 876.5000, -69.903
 876.6000, -68.048
 876.7000, -69.415
 876.8000, -68.703
 876.9000, -68.899
 877.0000, -70.164
 877.1000, -68.065
 877.2000, -69.797
 877.3000, -68.278
 877.4000, -70.536
 877.5000, -68.578
 877.6000, -70.034
 877.7000, -69.621
 877.8000, -68.969
 877.9000, -69.985
 878.0000, -68.824
 878.1000, -68.816
 878.2000, -68.855
 878.3000, -68.982
 878.4000, -69.505
 878.5000, -68.918
 878.6000, -68.839
 878.7000, -70.748
 878.8000, -67.721
 878.9000, -70.238
 879.0000, -68.525
 879.1000, -68.890
 879.2000, -69.209
 879.3000, -69.039
 879.4000, -69.830
 879.5000, -68.976
 879.6000, -70.277
 879.7000, -68.481
 879.8000, -69.336
 879.9000, -69.252
 880.0000, -69.206
 880.1000, -69.714
 880.2000, -69.217
 880.3000, -68.633
 880.4000, -69.084
 880.5000, -70.139
 880.6000, -68.956
 880.7000, -69.197
 880.8000, -69.280
 880.9000, -70.079
 881.0000, -69.217
 881.1000, -70.685
 881.2000, -68.791
 881.3000, -69.396
 881.4000, -68.711
 881.5000, -69.045
 881.6000, -69.099
 881.7000, -68.814
 881.8000, -70.229
 881.9000, -69.169
 882.0000, -70.296
 882.1000, -69.155
 882.2000, -69.908
 882.3000, -68.227
 882.4000, -69.996
 882.5000, -69.381
 882.6000, -68.985
 882.7000, -69.943
 882.8000, -68.728
 882.9000, -69.430
 883.0000, -69.520
 883.1000, -68.913
 883.2000, -69.473
 883.3000, -70.131
 883.4000, -68.475
 883.5000, -69.059
 883.6000, -69.437
 883.7000, -68.973
 883.8000, -69.309
 883.9000, -69.046
 884.0000, -68.954
 884.1000, -70.224
 884.2000, -68.873
 884.3000, -68.952
 884.4000, -70.090
 884.5000, -68.589
 884.6000, -69.587
 884.7000, -68.914
 884.8000, -68.792
 884.9000, -69.292
 885.0000, -68.858
 885.1000, -69.522
 885.2000, -69.196
 885.3000, -69.647
 885.4000, -69.148
 885.5000, -69.617
 885.6000, -68.842
 885.7000, -70.140
 885.8000, -69.509
 885.9000, -69.301
 886.0000, -69.809
 886.1000, -69.407
 886.2000, -69.331
 886.3000, -69.794
 886.4000, -69.037
 886.5000, -70.852
 886.6000, -69.184
 886.7000, -68.494
 886.8000, -70.527
 886.9000, -69.038
 887.0000, -69.913
 887.1000, -69.528
 887.2000, -70.000
 887.3000, -69.200
 887.4000, -69.376
 887.5000, -69.373
 887.6000, -69.494
 887.7000, -69.925
 887.8000, -69.165
 887.9000, -71.195
 888.0000, -69.127
 888.1000, -70.080
 888.2000, -69.017
 888.3000, -69.594
 888.4000, -69.838
 888.5000, -69.415
 888.6000, -69.684
 888.7000, -70.570
 888.8000, -69.857
 888.9000, -70.099
 889.0000, -69.888
 889.1000, -69.594
 889.2000, -70.267
 889.3000, -68.802
 889.4000, -71.312
 889.5000, -69.109
 889.6000, -69.127
 889.7000, -70.132
 889.8000, -69.866
 889.9000, -70.324
 890.0000, -68.948
 890.1000, -71.293
 890.2000, -68.772
 890.3000, -70.161
 890.4000, -69.396
 890.5000, -70.895
 890.6000, -69.595
 890.7000, -69.767
 890.8000, -70.066
 890.9000, -69.467
 891.0000, -70.607
 891.1000, -69.948
 891.2000, -69.900
 891.3000, -70.890
 891.4000, -70.113
 891.5000, -70.677
 891.6000, -70.422
 891.7000, -69.386
 891.8000, -70.975
 891.9000, -69.248
 892.0000, -71.247
 892.1000, -69.155
 892.2000, -70.301
 892.3000, -70.366
 892.4000, -69.927
 892.5000, -70.566
 892.6000, -69.978
 892.7000, -70.449
 892.8000, -68.977
 892.9000, -71.569
 893.0000, -69.665
 893.1000, -71.024
 893.2000, -69.473
 893.3000, -70.046
 893.4000, -71.128
 893.5000, -69.630
 893.6000, -70.434
 893.7000, -70.121
 893.8000, -70.050
 893.9000, -69.217
 894.0000, -70.583
 894.1000, -69.962
 894.2000, -70.284
 894.3000, -69.862
 894.4000, -70.483
 894.5000, -70.892
 894.6000, -69.915
 894.7000, -70.893
 894.8000, -69.993
 894.9000, -70.030
 895.0000, -71.220
 895.1000, -69.927
 895.2000, -69.890
 895.3000, -71.759
 895.4000, -69.055
 895.5000, -73.142
 895.6000, -69.109
 895.7000, -69.971
 895.8000, -70.511
 895.9000, -69.229
 896.0000, -71.130
 896.1000, -70.021
 896.2000, -70.960
 896.3000, -70.215
 896.4000, -71.333
 896.5000, -69.354
 896.6000, -70.584
 896.7000, -69.755
 896.8000, -69.990
 896.9000, -70.643
 897.0000, -70.434
 897.1000, -70.373
 897.2000, -70.607
 897.3000, -70.580
 897.4000, -70.111
 897.5000, -70.594
 897.6000, -70.126
 897.7000, -70.968
 897.8000, -69.386
 897.9000, -70.450
 898.0000, -70.154
 898.1000, -70.280
 898.2000, -70.553
 898.3000, -70.481
 898.4000, -70.787
 898.5000, -69.802
 898.6000, -70.330
 898.7000, -70.332
 898.8000, -70.069
 898.9000, -70.497
 899.0000, -70.295
 899.1000, -70.061
 899.2000, -70.142
 899.3000, -70.618
 899.4000, -69.520
 899.5000, -71.545
 899.6000, -69.935
 899.7000, -70.902
 899.8000, -70.363
 899.9000, -70.777
 900.0000, -69.822
 900.1000, -70.465
 900.2000, -70.386
 900.3000, -70.245
 900.4000, -70.048
 900.5000, -71.114
 900.6000, -70.630
 900.7000, -70.336
 900.8000, -70.552
 900.9000, -69.645
 901.0000, -70.699
 901.1000, -69.524
 901.2000, -72.029
 901.3000, -69.948
 901.4000, -70.662
 901.5000, -71.495
 901.6000, -69.512
 901.7000, -71.187
 901.8000, -70.052
 901.9000, -71.790
 902.0000, -69.524
 902.1000, -70.881
 902.2000, -69.616
 902.3000, -71.204
 902.4000, -69.972
 902.5000, -69.729
 902.6000, -72.903
 902.7000, -70.057
 902.8000, -71.039
 902.9000, -69.616
 903.0000, -70.998
 903.1000, -70.914
 903.2000, -70.878
 903.3000, -70.168
 903.4000, -70.491
 903.5000, -70.294
 903.6000, -70.107
 903.7000, -71.028
 903.8000, -70.449
 903.9000, -70.020
 904.0000, -70.186
 904.1000, -70.358
 904.2000, -71.568
 904.3000, -71.602
 904.4000, -69.305
 904.5000, -72.697
 904.6000, -69.878
 904.7000, -71.180
 904.8000, -70.729
 904.9000, -70.046
 905.0000, -70.471
 905.1000, -70.798
 905.2000, -70.974
 905.3000, -70.926
 905.4000, -71.471
 905.5000, -69.604
 905.6000, -71.362
 905.7000, -70.542
 905.8000, -70.114
 905.9000, -71.496
 906.0000, -70.203
 906.1000, -71.009
 906.2000, -70.841
 906.3000, -70.543
 906.4000, -71.858
 906.5000, -70.897
 906.6000, -70.667
 906.7000, -71.940
 906.8000, -70.032
 906.9000, -70.427
 907.0000, -70.233
 907.1000, -71.236
 907.2000, -71.152
 907.3000, -70.113
 907.4000, -71.085
 907.5000, -71.033
 907.6000, -70.246
 907.7000, -70.718
 907.8000, -71.516
 907.9000, -69.385
 908.0000, -71.859
 908.1000, -69.775
 908.2000, -71.041
 908.3000, -70.865
 908.4000, -70.118
 908.5000, -71.468
 908.6000, -69.699
 908.7000, -70.906
 908.8000, -70.278
 908.9000, -71.211
 909.0000, -70.108
 909.1000, -71.578
 909.2000, -71.571
 909.3000, -69.869
 909.4000, -71.002
 909.5000, -70.248
 909.6000, -71.535
 909.7000, -70.582
 909.8000, -70.492
 909.9000, -70.562
 910.0000, -71.246
 910.1000, -70.326
 910.2000, -72.025
 910.3000, -70.951
 910.4000, -71.176
 910.5000, -70.598
 910.6000, -70.647
 910.7000, -70.660
 910.8000, -70.871
 910.9000, -71.229
 911.0000, -69.911
 911.1000, -72.854
 911.2000, -70.144
 911.3000, -71.169
 911.4000, -69.833
 911.5000, -71.343
 911.6000, -70.804
 911.7000, -70.715
 911.8000, -71.165
 911.9000, -70.259
 912.0000, -72.531
 912.1000, -70.893
 912.2000, -71.806
 912.3000, -70.021
 912.4000, -72.408
 912.5000, -71.346
 912.6000, -71.459
 912.7000, -71.271
 912.8000, -70.330
 912.9000, -71.288
 913.0000, -69.744
 913.1000, -72.981
 913.2000, -70.053
 913.3000, -70.524
 913.4000, -70.860
 913.5000, -70.844
 913.6000, -70.239
 913.7000, -71.611
 913.8000, -70.774
 913.9000, -71.661
 914.0000, -70.716
 914.1000, -70.856
 914.2000, -70.649
 914.3000, -70.916
 914.4000, -71.238
 914.5000, -71.285
 914.6000, -72.079
 914.7000, -70.043
 914.8000, -71.934
 914.9000, -69.949
 915.0000, -71.067
 915.1000, -71.524
 915.2000, -71.309
 915.3000, -71.012
 915.4000, -70.640
 915.5000, -73.262
 915.6000, -71.129
 915.7000, -70.891
 915.8000, -70.278
 915.9000, -71.069
 916.0000, -71.161
 916.1000, -70.148
 916.2000, -71.032
 916.3000, -70.431
 916.4000, -71.038
 916.5000, -70.808
 916.6000, -72.247
 916.7000, -70.213
 916.8000, -71.591
 916.9000, -70.344
 917.0000, -71.131
 917.1000, -71.270
 917.2000, -70.657
 917.3000, -71.527
 917.4000, -71.200
 917.5000, -70.701
 917.6000, -71.619
 917.7000, -71.176
 917.8000, -70.700
 917.9000, -72.499
 918.0000, -71.139
 918.1000, -71.265
 918.2000, -70.919
 918.3000, -71.516
 918.4000, -70.774
 918.5000, -71.574
 918.6000, -70.620
 918.7000, -70.675
 918.8000, -72.309
 918.9000, -70.696
 919.0000, -71.746
 919.1000, -70.293
 919.2000, -71.284
 919.3000, -70.438
 919.4000, -71.474
 919.5000, -71.606
 919.6000, -70.173
 919.7000, -72.642
 919.8000, -70.305
 919.9000, -72.216
 920.0000, -70.158
 920.1000, -71.118
 920.2000, -70.834
 920.3000, -71.705
 920.4000, -70.778
 920.5000, -70.798
 920.6000, -71.371
 920.7000, -70.904
 920.8000, -71.681
 920.9000, -71.224
 921.0000, -72.431
 921.1000, -70.783
 921.2000, -70.690
 921.3000, -70.697
 921.4000, -72.093
 921.5000, -71.328
 921.6000, -70.770
 921.7000, -71.417
 921.8000, -71.089
 921.9000, -71.008
 922.0000, -70.711
 922.1000, -71.251
 922.2000, -71.236
 922.3000, -72.020
 922.4000, -70.644
 922.5000, -72.800
 922.6000, -70.467
 922.7000, -71.144
 922.8000, -71.045
 922.9000, -72.103
 923.0000, -71.505
 923.1000, -70.707
 923.2000, -71.105
 923.3000, -70.877
 923.4000, -71.409
 923.5000, -70.608
 923.6000, -72.453
 923.7000, -70.250
 923.8000, -71.751
 923.9000, -70.793
 924.0000, -70.926
 924.1000, -72.392
 924.2000, -70.777
 924.3000, -71.138
 924.4000, -71.966
 924.5000, -71.893
 924.6000, -70.743
 924.7000, -71.637
 924.8000, -71.106
 924.9000, -71.378
 925.0000, -71.569
 925.1000, -71.511
 925.2000, -70.915
 925.3000, -70.979
 925.4000, -72.139
 925.5000, -70.614
 925.6000, -71.736
 925.7000, -70.367
 925.8000, -71.824
 925.9000, -70.808
 926.0000, -71.355
 926.1000, -71.067
 926.2000, -72.423
 926.3000, -71.338
 926.4000, -71.316
 926.5000, -70.824
 926.6000, -70.583
 926.7000, -72.135
 926.8000, -70.501
 926.9000, -71.952
 927.0000, -70.497
 927.1000, -74.450
 927.2000, -70.347
 927.3000, -72.451
 927.4000, -71.735
 927.5000, -70.289
 927.6000, -71.782
 927.7000, -71.007
 927.8000, -73.021
 927.9000, -70.635
 928.0000, -72.596
 928.1000, -70.399
 928.2000, -72.147
 928.3000, -71.699
 928.4000, -70.228
 928.5000, -70.553
 928.6000, -71.467
 928.7000, -71.827
 928.8000, -70.932
 928.9000, -71.732
 929.0000, -71.203
 929.1000, -71.040
 929.2000, -71.355
 929.3000, -71.599
 929.4000, -72.319
 929.5000, -71.435
 929.6000, -71.732
 929.7000, -70.865
 929.8000, -70.962
 929.9000, -70.489
 930.0000, -71.099
 930.1000, -71.635
 930.2000, -71.413
 930.3000, -71.858
 930.4000, -72.177
 930.5000, -71.828
 930.6000, -72.259
 930.7000, -71.209
 930.8000, -71.056
 930.9000, -71.072
 931.0000, -73.308
 931.1000, -71.572
 931.2000, -71.390
 931.3000, -72.383
 931.4000, -70.939
 931.5000, -73.199
 931.6000, -70.867
 931.7000, -71.500
 931.8000, -70.686
 931.9000, -70.962
 932.0000, -72.740
 932.1000, -70.713
 932.2000, -71.972
 932.3000, -71.054
 932.4000, -70.805
 932.5000, -72.124
 932.6000, -72.047
 932.7000, -71.559
 932.8000, -72.133
 932.9000, -72.817
 933.0000, -70.951
 933.1000, -71.009
 933.2000, -72.003
 933.3000, -70.719
 933.4000, -71.322
 933.5000, -71.738
 933.6000, -71.077
 933.7000, -71.623
 933.8000, -71.867
 933.9000, -71.658
 934.0000, -71.816
 934.1000, -71.755
 934.2000, -71.731
 934.3000, -72.179
 934.4000, -71.375
 934.5000, -72.084
 934.6000, -70.282
 934.7000, -71.846
 934.8000, -72.475
 934.9000, -71.022
 935.0000, -71.954
 935.1000, -71.921
 935.2000, -72.057
 935.3000, -70.238
 935.4000, -73.869
 935.5000, -70.753
 935.6000, -72.676
 935.7000, -71.291
 935.8000, -72.437
 935.9000, -72.060
 936.0000, -69.804
 936.1000, -72.025
 936.2000, -71.161
 936.3000, -72.117
 936.4000, -71.299
 936.5000, -72.736
 936.6000, -71.120
 936.7000, -72.538
 936.8000, -71.076
 936.9000, -70.757
 937.0000, -72.727
 937.1000, -70.846
 937.2000, -72.268
 937.3000, -71.051
 937.4000, -72.416
 937.5000, -72.435
 937.6000, -72.558
 937.7000, -71.970
 937.8000, -71.449
 937.9000, -71.389
 938.0000, -70.703
 938.1000, -72.923
 938.2000, -72.190
 938.3000, -71.691
 938.4000, -71.209
 938.5000, -71.978
 938.6000, -71.705
 938.7000, -71.679
 938.8000, -70.993
 938.9000, -72.680
 939.0000, -71.969
 939.1000, -72.105
 939.2000, -72.124
 939.3000, -70.967
 939.4000, -72.410
 939.5000, -70.950
 939.6000, -72.936
 939.7000, -71.714
 939.8000, -73.401
 939.9000, -71.148
 940.0000, -72.489
 940.1000, -70.599
 940.2000, -73.344
 940.3000, -71.919
 940.4000, -71.891
 940.5000, -71.603
 940.6000, -71.637
 940.7000, -72.730
 940.8000, -70.899
 940.9000, -74.137
 941.0000, -70.528
 941.1000, -73.405
 941.2000, -70.925
 941.3000, -71.416
 941.4000, -72.659
 941.5000, -70.841
 941.6000, -72.790
 941.7000, -71.194
 941.8000, -72.497
 941.9000, -71.650
 942.0000, -73.137
 942.1000, -70.911
 942.2000, -72.499
 942.3000, -71.996
 942.4000, -71.518
 942.5000, -72.426
 942.6000, -71.413
 942.7000, -73.351
 942.8000, -71.565
 942.9000, -72.296
 943.0000, -72.466
 943.1000, -72.043
 943.2000, -70.784
 943.3000, -71.452
 943.4000, -71.712
 943.5000, -71.332
 943.6000, -72.924
 943.7000, -71.588
 943.8000, -72.504
 943.9000, -71.489
 944.0000, -71.513
 944.1000, -72.554
 944.2000, -72.263
 944.3000, -71.099
 944.4000, -71.259
 944.5000, -72.806
 944.6000, -72.811
 944.7000, -71.160
 944.8000, -71.362
 944.9000, -71.307
 945.0000, -72.073
 945.1000, -71.571
 945.2000, -71.944
 945.3000, -72.923
 945.4000, -71.265
 945.5000, -72.040
 945.6000, -72.016
 945.7000, -71.432
 945.8000, -71.532
 945.9000, -73.792
 946.0000, -71.979
 946.1000, -71.593
 946.2000, -72.829
 946.3000, -71.711
 946.4000, -73.138
 946.5000, -71.424
 946.6000, -73.207
 946.7000, -71.813
 946.8000, -71.927
 946.9000, -71.265
 947.0000, -72.552
 947.1000, -73.205
 947.2000, -72.025
 947.3000, -74.519
 947.4000, -70.984
 947.5000, -73.118
 947.6000, -71.225
 947.7000, -72.324
 947.8000, -73.400
 947.9000, -71.653
 948.0000, -73.476
 948.1000, -71.444
 948.2000, -72.633
 948.3000, -71.541
 948.4000, -73.412
 948.5000, -72.353
 948.6000, -72.223
 948.7000, -72.408
 948.8000, -71.739
 948.9000, -73.369
 949.0000, -70.856
 949.1000, -73.405
 949.2000, -71.468
 949.3000, -73.739
 949.4000, -71.653
 949.5000, -72.980
 949.6000, -71.349
 949.7000, -73.083
 949.8000, -71.119
 949.9000, -71.950
 950.0000, -73.287
 950.1000, -71.167
 950.2000, -73.519
 950.3000, -72.321
 950.4000, -71.956
 950.5000, -71.524
 950.6000, -72.050
 950.7000, -71.950
 950.8000, -72.141
 950.9000, -72.169
 951.0000, -71.814
 951.1000, -72.799
 951.2000, -73.550
 951.3000, -72.917
 951.4000, -71.600
 951.5000, -73.241
 951.6000, -72.239
 951.7000, -73.003
 951.8000, -72.206
 951.9000, -72.216
 952.0000, -72.735
 952.1000, -72.394
 952.2000, -71.552
 952.3000, -72.026
 952.4000, -71.460
 952.5000, -71.673
 952.6000, -72.408
 952.7000, -72.486
 952.8000, -72.023
 952.9000, -73.177
 953.0000, -72.388
 953.1000, -72.550
 953.2000, -71.832
 953.3000, -71.750
 953.4000, -71.142
 953.5000, -73.343
 953.6000, -72.783
 953.7000, -72.120
 953.8000, -71.858
 953.9000, -71.674
 954.0000, -73.986
 954.1000, -71.240
 954.2000, -72.487
 954.3000, -72.039
 954.4000, -73.432
 954.5000, -71.598
 954.6000, -72.240
 954.7000, -72.099
 954.8000, -72.119
 954.9000, -72.503
 955.0000, -71.676
 955.1000, -71.949
 955.2000, -71.794
 955.3000, -72.573
 955.4000, -71.706
 955.5000, -72.785
 955.6000, -71.733
 955.7000, -72.593
 955.8000, -72.114
 955.9000, -72.328
 956.0000, -72.638
 956.1000, -72.774
 956.2000, -72.157
 956.3000, -71.456
 956.4000, -73.441
 956.5000, -70.898
 956.6000, -72.990
 956.7000, -72.235
 956.8000, -72.388
 956.9000, -71.295
 957.0000, -72.738
 957.1000, -72.783
 957.2000, -71.548
 957.3000, -72.263
 957.4000, -71.410
 957.5000, -74.993
 957.6000, -70.872
 957.7000, -73.361
 957.8000, -71.417
 957.9000, -71.767
 958.0000, -72.663
 958.1000, -70.928
 958.2000, -74.028
 958.3000, -71.603
 958.4000, -73.796
 958.5000, -70.829
 958.6000, -72.088
 958.7000, -71.445
 958.8000, -72.950
 958.9000, -71.982
 959.0000, -72.221
 959.1000, -71.728
 959.2000, -71.034
 959.3000, -72.467
 959.4000, -70.325
 959.5000, -71.853
 959.6000, -71.619
 959.7000, -71.806
 959.8000, -72.161
 959.9000, -70.920
 960.0000, -72.348
 960.1000, -71.047
 960.2000, -72.559
 960.3000, -70.546
 960.4000, -71.984
 960.5000, -70.769
 960.6000, -71.343
 960.7000, -72.218
 960.8000, -70.525
 960.9000, -71.287
 961.0000, -70.272
 961.1000, -71.579
 961.2000, -69.684
 961.3000, -71.784
 961.4000, -70.838
 961.5000, -70.613
 961.6000, -70.339
 961.7000, -69.434
 961.8000, -70.504
 961.9000, -69.504
 962.0000, -70.448
 962.1000, -68.890
 962.2000, -70.772
 962.3000, -68.691
 962.4000, -69.289
 962.5000, -70.191
 962.6000, -68.643
 962.7000, -69.081
 962.8000, -68.363
 962.9000, -68.856
 963.0000, -67.969
 963.1000, -68.793
 963.2000, -67.604
 963.3000, -68.205
 963.4000, -67.745
 963.5000, -67.571
 963.6000, -68.017
 963.7000, -67.157
 963.8000, -67.197
 963.9000, -66.850
 964.0000, -66.928
 964.1000, -66.145
 964.2000, -66.513
 964.3000, -66.162
 964.4000, -66.091
 964.5000, -66.053
 964.6000, -65.533
 964.7000, -65.472
 964.8000, -65.135
 964.9000, -65.271
 965.0000, -64.801
 965.1000, -64.737
 965.2000, -64.334
 965.3000, -64.364
 965.4000, -64.064
 965.5000, -63.831
 965.6000, -63.740
 965.7000, -63.610
 965.8000, -63.706
 965.9000, -63.102
 966.0000, -63.122
 966.1000, -62.769
 966.2000, -62.697
 966.3000, -62.454
 966.4000, -62.124
 966.5000, -62.206
 966.6000, -61.858
 966.7000, -61.882
 966.8000, -61.666
 966.9000, -61.518
 967.0000, -61.311
 967.1000, -61.174
 967.2000, -61.147
 967.3000, -60.858
 967.4000, -60.754
 967.5000, -60.717
 967.6000, -60.611
 967.7000, -60.497
 967.8000, -60.414
 967.9000, -60.223
 968.0000, -60.230
 968.1000, -60.013
 968.2000, -60.036
 968.3000, -59.934
 968.4000, -59.744
 968.5000, -59.647
 968.6000, -59.534
 968.7000, -59.430
 968.8000, -59.323
 968.9000, -59.210
 969.0000, -59.004
 969.1000, -58.952
 969.2000, -58.845
 969.3000, -58.850
 969.4000, -58.770
 969.5000, -58.592
 969.6000, -58.489
 969.7000, -58.417
 969.8000, -58.299
 969.9000, -58.208
 970.0000, -58.177
 970.1000, -58.076
 970.2000, -57.991
 970.3000, -57.985
 970.4000, -57.796
 970.5000, -57.825
 970.6000, -57.633
 970.7000, -57.539
 970.8000, -57.472
 970.9000, -57.436
 971.0000, -57.335
 971.1000, -57.302
 971.2000, -57.306
 971.3000, -57.225
 971.4000, -57.222
 971.5000, -57.122
 971.6000, -57.073
 971.7000, -56.929
 971.8000, -56.838
 971.9000, -56.743
 972.0000, -56.624
 972.1000, -56.581
 972.2000, -56.564
 972.3000, -56.464
 972.4000, -56.434
 972.5000, -56.425
 972.6000, -56.324
 972.7000, -56.307
 972.8000, -56.274
 972.9000, -56.178
 973.0000, -56.118
 973.1000, -56.046
 973.2000, -56.040
 973.3000, -56.031
 973.4000, -56.000
 973.5000, -56.032
 973.6000, -55.915
 973.7000, -55.942
 973.8000, -55.937
 973.9000, -55.931
 974.0000, -55.864
 974.1000, -55.880
 974.2000, -55.780
 974.3000, -55.793
 974.4000, -55.751
 974.5000, -55.803
 974.6000, -55.730
 974.7000, -55.787
 974.8000, -55.820
 974.9000, -55.808
 975.0000, -55.726
 975.1000, -55.688
 975.2000, -55.555
 975.3000, -55.560
 975.4000, -55.511
 975.5000, -55.533
 975.6000, -55.533
 975.7000, -55.463
 975.8000, -55.402
 975.9000, -55.346
 976.0000, -55.364
 976.1000, -55.457
 976.2000, -55.529
 976.3000, -55.530
 976.4000, -55.319
 976.5000, -55.250
 976.6000, -55.270
 976.7000, -55.378
 976.8000, -55.402
 976.9000, -55.240
 977.0000, -55.230
 977.1000, -55.141
 977.2000, -55.199
 977.3000, -55.360
 977.4000, -55.419
 977.5000, -55.387
 977.6000, -55.318
 977.7000, -55.274
 977.8000, -55.215
 977.9000, -55.240
 978.0000, -55.293
 978.1000, -55.370
 978.2000, -55.244
 978.3000, -55.269
 978.4000, -55.151
 978.5000, -55.127
 978.6000, -55.140
 978.7000, -55.173
 978.8000, -55.244
 978.9000, -55.146
 979.0000, -55.211
 979.1000, -55.210
 979.2000, -55.136
 979.3000, -54.976
 979.4000, -54.955
 979.5000, -54.885
 979.6000, -54.933
 979.7000, -54.966
 979.8000, -54.870
 979.9000, -54.707
 980.0000, -54.514
 980.1000, -54.429
 980.2000, -54.434
 980.3000, -54.380
 980.4000, -54.345
 980.5000, -54.220
 980.6000, -54.095
 980.7000, -54.011
 980.8000, -53.952
 980.9000, -53.946
 981.0000, -53.931
 981.1000, -53.920
 981.2000, -53.876
 981.3000, -53.815
 981.4000, -53.802
 981.5000, -53.712
 981.6000, -53.604
 981.7000, -53.508
 981.8000, -53.407
 981.9000, -53.372
 982.0000, -53.338
 982.1000, -53.293
 982.2000, -53.254
 982.3000, -53.179
 982.4000, -52.995
 982.5000, -52.866
 982.6000, -52.773
 982.7000, -52.770
 982.8000, -52.717
 982.9000, -52.646
 983.0000, -52.534
 983.1000, -52.437
 983.2000, -52.409
 983.3000, -52.387
 983.4000, -52.343
 983.5000, -52.380
 983.6000, -52.292
 983.7000, -52.188
 983.8000, -52.080
 983.9000, -51.920
 984.0000, -51.818
 984.1000, -51.775
 984.2000, -51.688
 984.3000, -51.684
 984.4000, -51.595
 984.5000, -51.489
 984.6000, -51.413
 984.7000, -51.346
 984.8000, -51.317
 984.9000, -51.374
 985.0000, -51.335
 985.1000, -51.251
 985.2000, -51.187
 985.3000, -51.101
 985.4000, -51.032
 985.5000, -50.999
 985.6000, -50.941
 985.7000, -50.890
 985.8000, -50.784
 985.9000, -50.765
 986.0000, -50.698
 986.1000, -50.685
 986.2000, -50.599
 986.3000, -50.568
 986.4000, -50.478
 986.5000, -50.439
 986.6000, -50.310
 986.7000, -50.341
 986.8000, -50.320
 986.9000, -50.348
 987.0000, -50.250
 987.1000, -50.131
 987.2000, -49.986
 987.3000, -49.960
 987.4000, -49.927
 987.5000, -50.027
 987.6000, -50.043
 987.7000, -50.045
 987.8000, -49.889
 987.9000, -49.782
 988.0000, -49.698
 988.1000, -49.702
 988.2000, -49.667
 988.3000, -49.657
 988.4000, -49.678
 988.5000, -49.684
 988.6000, -49.672
 988.7000, -49.649
 988.8000, -49.534
 988.9000, -49.416
 989.0000, -49.322
 989.1000, -49.384
 989.2000, -49.417
 989.3000, -49.332
 989.4000, -49.338
 989.5000, -49.303
 989.6000, -49.216
 989.7000, -49.069
 989.8000, -48.973
 989.9000, -48.883
 990.0000, -48.886
 990.1000, -48.899
 990.2000, -48.966
 990.3000, -49.005
 990.4000, -49.068
 990.5000, -49.044
 990.6000, -48.899
 990.7000, -48.829
 990.8000, -48.732
 990.9000, -48.686
 991.0000, -48.679
 991.1000, -48.696
 991.2000, -48.775
 991.3000, -48.707
 991.4000, -48.678
 991.5000, -48.567
 991.6000, -48.498
 991.7000, -48.441
 991.8000, -48.386
 991.9000, -48.482
 992.0000, -48.571
 992.1000, -48.636
 992.2000, -48.639
 992.3000, -48.547
 992.4000, -48.480
 992.5000, -48.388
 992.6000, -48.369
 992.7000, -48.429
 992.8000, -48.477
 992.9000, -48.488
 993.0000, -48.454
 993.1000, -48.397
 993.2000, -48.353
 993.3000, -48.289
 993.4000, -48.266
 993.5000, -48.189
 993.6000, -48.135
 993.7000, -48.211
 993.8000, -48.193
 993.9000, -48.167
 994.0000, -48.156
 994.1000, -48.185
 994.2000, -48.196
 994.3000, -48.254
 994.4000, -48.210
 994.5000, -48.202
 994.6000, -48.165
 994.7000, -48.121
 994.8000, -48.235
 994.9000, -48.247
 995.0000, -48.299
 995.1000, -48.239
 995.2000, -48.128
 995.3000, -48.117
 995.4000, -48.181
 995.5000, -48.289
 995.6000, -48.371
 995.7000, -48.401
 995.8000, -48.323
 995.9000, -48.239
 996.0000, -48.206
 996.1000, -48.314
 996.2000, -48.428
 996.3000, -48.653
 996.4000, -48.725
 996.5000, -48.787
 996.6000, -48.704
 996.7000, -48.644
 996.8000, -48.613
 996.9000, -48.581
 997.0000, -48.542
 997.1000, -48.574
 997.2000, -48.592
 997.3000, -48.654
 997.4000, -48.696
 997.5000, -48.681
 997.6000, -48.641
 997.7000, -48.625
 997.8000, -48.644
 997.9000, -48.692
 998.0000, -48.707
 998.1000, -48.700
 998.2000, -48.649
 998.3000, -48.634
 998.4000, -48.733
 998.5000, -48.743
 998.6000, -48.752
 998.7000, -48.748
 998.8000, -48.761
 998.9000, -48.808
 999.0000, -48.858
 999.1000, -48.888
 999.2000, -48.961
 999.3000, -48.990
 999.4000, -49.024
 999.5000, -49.064
 999.6000, -49.115
 999.7000, -49.103
 999.8000, -49.028
 999.9000, -48.994
1000.0000, -49.075
1000.1000, -49.144
1000.2000, -49.244
1000.3000, -49.293
1000.4000, -49.283
1000.5000, -49.270
1000.6000, -49.223
1000.7000, -49.145
1000.8000, -49.132
1000.9000, -49.154
1001.0000, -49.231
1001.1000, -49.241
1001.2000, -49.235
1001.3000, -49.181
1001.4000, -49.203
1001.5000, -49.313
1001.6000, -49.433
1001.7000, -49.514
1001.8000, -49.552
1001.9000, -49.567
1002.0000, -49.572
1002.1000, -49.553
1002.2000, -49.561
1002.3000, -49.595
1002.4000, -49.641
1002.5000, -49.712
1002.6000, -49.728
1002.7000, -49.659
1002.8000, -49.506
1002.9000, -49.423
1003.0000, -49.464
1003.1000, -49.555
1003.2000, -49.620
1003.3000, -49.649
1003.4000, -49.624
1003.5000, -49.631
1003.6000, -49.711
1003.7000, -49.752
1003.8000, -49.830
1003.9000, -49.786
1004.0000, -49.788
1004.1000, -49.743
1004.2000, -49.661
1004.3000, -49.669
1004.4000, -49.648
1004.5000, -49.697
1004.6000, -49.770
1004.7000, -49.796
1004.8000, -49.774
1004.9000, -49.740
1005.0000, -49.737
1005.1000, -49.708
1005.2000, -49.614
1005.3000, -49.616
1005.4000, -49.584
1005.5000, -49.601
1005.6000, -49.666
1005.7000, -49.692
1005.8000, -49.660
1005.9000, -49.565
1006.0000, -49.526
1006.1000, -49.549
1006.2000, -49.592
1006.3000, -49.608
1006.4000, -49.584
1006.5000, -49.555
1006.6000, -49.412
1006.7000, -49.393
1006.8000, -49.401
1006.9000, -49.369
1007.0000, -49.422
1007.1000, -49.406
1007.2000, -49.382
1007.3000, -49.383
1007.4000, -49.327
1007.5000, -49.307
1007.6000, -49.235
1007.7000, -49.181
1007.8000, -49.172
1007.9000, -49.167
1008.0000, -49.226
1008.1000, -49.300
1008.2000, -49.281
1008.3000, -49.340
1008.4000, -49.236
1008.5000, -49.154
1008.6000, -49.104
1008.7000, -49.065
1008.8000, -49.096
1008.9000, -49.106
1009.0000, -49.118
1009.1000, -49.097
1009.2000, -48.988
1009.3000, -48.911
1009.4000, -48.807
1009.5000, -48.850
1009.6000, -48.865
1009.7000, -48.879
1009.8000, -48.882
1009.9000, -48.759
1010.0000, -48.681
1010.1000, -48.696
1010.2000, -48.702
1010.3000, -48.776
1010.4000, -48.715
1010.5000, -48.622
1010.6000, -48.464
1010.7000, -48.455
1010.8000, -48.527
1010.9000, -48.532
1011.0000, -48.430
1011.1000, -48.293
1011.2000, -48.254
1011.3000, -48.236
1011.4000, -48.204
1011.5000, -48.232
1011.6000, -48.218
1011.7000, -48.225
1011.8000, -48.173
1011.9000, -48.068
1012.0000, -47.922
1012.1000, -47.836
1012.2000, -47.855
1012.3000, -47.991
1012.4000, -48.105
1012.5000, -48.164
1012.6000, -47.996
1012.7000, -47.981
1012.8000, -47.925
1012.9000, -47.814
1013.0000, -47.721
1013.1000, -47.735
1013.2000, -47.841
1013.3000, -48.065
1013.4000, -48.128
1013.5000, -48.061
1013.6000, -47.912
1013.7000, -47.779
1013.8000, -47.635
1013.9000, -47.602
1014.0000, -47.519
1014.1000, -47.475
1014.2000, -47.504
1014.3000, -47.548
1014.4000, -47.568
1014.5000, -47.499
1014.6000, -47.445
1014.7000, -47.311
1014.8000, -47.282
1014.9000, -47.231
1015.0000, -47.250
1015.1000, -47.162
1015.2000, -47.142
1015.3000, -47.193
1015.4000, -47.255
1015.5000, -47.187
1015.6000, -47.141
1015.7000, -47.039
1015.8000, -46.990
1015.9000, -46.998
1016.0000, -46.961
1016.1000, -46.982
1016.2000, -46.933
1016.3000, -46.880
1016.4000, -46.885
1016.5000, -46.812
1016.6000, -46.797
1016.7000, -46.852
1016.8000, -46.920
1016.9000, -46.895
1017.0000, -46.883
1017.1000, -46.732
1017.2000, -46.735
1017.3000, -46.630
1017.4000, -46.577
1017.5000, -46.600
1017.6000, -46.655
1017.7000, -46.686
1017.8000, -46.648
1017.9000, -46.547
1018.0000, -46.510
1018.1000, -46.461
1018.2000, -46.515
1018.3000, -46.572
1018.4000, -46.613
1018.5000, -46.571
1018.6000, -46.491
1018.7000, -46.314
1018.8000, -46.331
1018.9000, -46.278
1019.0000, -46.384
1019.1000, -46.456
1019.2000, -46.501
1019.3000, -46.425
1019.4000, -46.327
1019.5000, -46.261
1019.6000, -46.183
1019.7000, -46.163
1019.8000, -46.167
1019.9000, -46.215
1020.0000, -46.157
1020.1000, -46.186
1020.2000, -46.172
1020.3000, -46.154
1020.4000, -46.100
1020.5000, -46.040
1020.6000, -45.988
1020.7000, -45.977
1020.8000, -45.974
1020.9000, -45.907
1021.0000, -45.908
1021.1000, -45.899
1021.2000, -45.912
1021.3000, -45.917
1021.4000, -45.944
1021.5000, -46.021
1021.6000, -45.996
1021.7000, -45.916
1021.8000, -45.899
1021.9000, -45.902
1022.0000, -45.965
1022.1000, -45.910
1022.2000, -45.961
1022.3000, -45.970
1022.4000, -46.024
1022.5000, -45.948
1022.6000, -45.964
1022.7000, -45.994
1022.8000, -46.005
1022.9000, -46.000
1023.0000, -45.921
1023.1000, -45.847
1023.2000, -45.795
1023.3000, -45.802
1023.4000, -45.761
1023.5000, -45.772
1023.6000, -45.791
1023.7000, -45.868
1023.8000, -45.902
1023.9000, -45.968
1024.0000, -45.927
1024.1000, -45.926
1024.2000, -45.859
1024.3000, -45.801
1024.4000, -45.826
1024.5000, -45.818
1024.6000, -45.878
1024.7000, -45.870
1024.8000, -45.801
1024.9000, -45.766
1025.0000, -45.791
1025.1000, -45.882
1025.2000, -45.953
1025.3000, -45.925
1025.4000, -45.863
1025.5000, -45.866
1025.6000, -45.819
1025.7000, -45.791
1025.8000, -45.674
1025.9000, -45.746
1026.0000, -45.837
1026.1000, -45.908
1026.2000, -45.951
1026.3000, -45.967
1026.4000, -45.979
1026.5000, -45.952
1026.6000, -45.918
1026.7000, -45.879
1026.8000, -45.822
1026.9000, -45.760
1027.0000, -45.778
1027.1000, -45.890
1027.2000, -46.061
1027.3000, -46.216
1027.4000, -46.204
1027.5000, -46.119
1027.6000, -46.016
1027.7000, -45.938
1027.8000, -45.985
1027.9000, -45.995
1028.0000, -45.995
1028.1000, -45.994
1028.2000, -45.985
1028.3000, -46.033
1028.4000, -46.036
1028.5000, -45.988
1028.6000, -45.899
1028.7000, -45.877
1028.8000, -45.930
1028.9000, -46.018
1029.0000, -46.056
1029.1000, -46.109
1029.2000, -46.015
1029.3000, -45.981
1029.4000, -45.938
1029.5000, -45.933
1029.6000, -46.000
1029.7000, -46.080
1029.8000, -46.164
1029.9000, -46.172
1030.0000, -46.254
1030.1000, -46.208
1030.2000, -46.110
1030.3000, -46.014
1030.4000, -45.983
1030.5000, -45.982
1030.6000, -46.088
1030.7000, -46.080
1030.8000, -46.092
1030.9000, -46.119
1031.0000, -46.153
1031.1000, -46.182
1031.2000, -46.139
1031.3000, -46.090
1031.4000, -46.112
1031.5000, -46.082
1031.6000, -46.033
1031.7000, -46.026
1031.8000, -46.040
1031.9000, -46.115
1032.0000, -46.251
1032.1000, -46.349
1032.2000, -46.387
1032.3000, -46.348
1032.4000, -46.302
1032.5000, -46.206
1032.6000, -46.205
1032.7000, -46.220
1032.8000, -46.226
1032.9000, -46.241
1033.0000, -46.194
1033.1000, -46.192
1033.2000, -46.303
1033.3000, -46.484
1033.4000, -46.497
1033.5000, -46.429
1033.6000, -46.373
1033.7000, -46.341
1033.8000, -46.319
1033.9000, -46.284
1034.0000, -46.322
1034.1000, -46.321
1034.2000, -46.278
1034.3000, -46.209
1034.4000, -46.258
1034.5000, -46.327
1034.6000, -46.461
1034.7000, -46.513
1034.8000, -46.428
1034.9000, -46.380
1035.0000, -46.400
1035.1000, -46.356
1035.2000, -46.236
1035.3000, -46.221
1035.4000, -46.220
1035.5000, -46.343
1035.6000, -46.496
1035.7000, -46.568
1035.8000, -46.591
1035.9000, -46.522
1036.0000, -46.470
1036.1000, -46.365
1036.2000, -46.230
1036.3000, -46.215
1036.4000, -46.247
1036.5000, -46.351
1036.6000, -46.389
1036.7000, -46.338
1036.8000, -46.240
1036.9000, -46.223
1037.0000, -46.270
1037.1000, -46.215
1037.2000, -46.129
1037.3000, -46.074
1037.4000, -46.109
1037.5000, -46.159
1037.6000, -46.187
1037.7000, -46.083
1037.8000, -46.022
1037.9000, -45.942
1038.0000, -45.955
1038.1000, -46.037
1038.2000, -46.123
1038.3000, -46.194
1038.4000, -46.143
1038.5000, -46.090
1038.6000, -46.021
1038.7000, -45.978
1038.8000, -45.948
1038.9000, -45.960
1039.0000, -45.978
1039.1000, -46.015
1039.2000, -46.088
1039.3000, -46.179
1039.4000, -46.143
1039.5000, -46.109
1039.6000, -45.993
1039.7000, -45.912
1039.8000, -45.794
1039.9000, -45.803
1040.0000, -45.834
1040.1000, -45.889
1040.2000, -45.885
1040.3000, -45.897
1040.4000, -45.915
1040.5000, -45.924
1040.6000, -45.803
1040.7000, -45.714
1040.8000, -45.739
1040.9000, -45.688
1041.0000, -45.641
1041.1000, -45.500
1041.2000, -45.468
1041.3000, -45.619
1041.4000, -45.771
1041.5000, -45.726
1041.6000, -45.540
1041.7000, -45.397
1041.8000, -45.368
1041.9000, -45.409
1042.0000, -45.449
1042.1000, -45.437
1042.2000, -45.424
1042.3000, -45.367
1042.4000, -45.294
1042.5000, -45.253
1042.6000, -45.272
1042.7000, -45.288
1042.8000, -45.213
1042.9000, -45.169
1043.0000, -45.163
1043.1000, -45.226
1043.2000, -45.249
1043.3000, -45.216
1043.4000, -45.148
1043.5000, -45.094
1043.6000, -45.069
1043.7000, -45.046
1043.8000, -44.941
1043.9000, -44.820
1044.0000, -44.782
1044.1000, -44.764
1044.2000, -44.888
1044.3000, -45.003
1044.4000, -44.988
1044.5000, -44.866
1044.6000, -44.675
1044.7000, -44.537
1044.8000, -44.484
1044.9000, -44.510
1045.0000, -44.579
1045.1000, -44.597
1045.2000, -44.614
1045.3000, -44.611
1045.4000, -44.589
1045.5000, -44.552
1045.6000, -44.574
1045.7000, -44.510
1045.8000, -44.445
1045.9000, -44.304
1046.0000, -44.204
1046.1000, -44.167
1046.2000, -44.160
1046.3000, -44.227
1046.4000, -44.274
1046.5000, -44.254
1046.6000, -44.211
1046.7000, -44.167
1046.8000, -44.110
1046.9000, -43.990
1047.0000, -43.842
1047.1000, -43.669
1047.2000, -43.628
1047.3000, -43.687
1047.4000, -43.781
1047.5000, -43.859
1047.6000, -43.880
1047.7000, -43.799
1047.8000, -43.636
1047.9000, -43.493
1048.0000, -43.430
1048.1000, -43.467
1048.2000, -43.500
1048.3000, -43.436
1048.4000, -43.349
1048.5000, -43.343
1048.6000, -43.350
1048.7000, -43.312
1048.8000, -43.279
1048.9000, -43.316
1049.0000, -43.294
1049.1000, -43.152
1049.2000, -42.946
1049.3000, -42.825
1049.4000, -42.858
1049.5000, -42.906
1049.6000, -42.892
1049.7000, -42.820
1049.8000, -42.827
1049.9000, -42.810
1050.0000, -42.729
1050.1000, -42.610
1050.2000, -42.570
1050.3000, -42.565
1050.4000, -42.504
1050.5000, -42.462
1050.6000, -42.428
1050.7000, -42.487
1050.8000, -42.467
1050.9000, -42.355
1051.0000, -42.224
1051.1000, -42.127
1051.2000, -42.060
1051.3000, -41.982
1051.4000, -41.830
1051.5000, -41.618
1051.6000, -41.368
1051.7000, -41.021
1051.8000, -40.518
1051.9000, -39.768
1052.0000, -38.868
1052.1000, -37.969
1052.2000, -37.149
1052.3000, -36.318
1052.4000, -35.539
1052.5000, -34.851
1052.6000, -34.224
1052.7000, -33.724
1052.8000, -33.387
1052.9000, -33.228
1053.0000, -33.095
1053.1000, -32.932
1053.2000, -32.770
1053.3000, -32.679
1053.4000, -32.714
1053.5000, -32.748
1053.6000, -32.704
1053.7000, -32.593
1053.8000, -32.497
1053.9000, -32.492
1054.0000, -32.578
1054.1000, -32.607
1054.2000, -32.487
1054.3000, -32.226
1054.4000, -32.019
1054.5000, -32.010
1054.6000, -32.159
1054.7000, -32.221
1054.8000, -32.090
1054.9000, -31.864
1055.0000, -31.750
1055.1000, -31.825
1055.2000, -32.020
1055.3000, -32.118
1055.4000, -31.995
1055.5000, -31.633
1055.6000, -31.274
1055.7000, -31.171
1055.8000, -31.315
1055.9000, -31.498
1056.0000, -31.515
1056.1000, -31.384
1056.2000, -31.311
1056.3000, -31.311
1056.4000, -31.334
1056.5000, -31.282
1056.6000, -31.077
1056.7000, -30.766
1056.8000, -30.535
1056.9000, -30.568
1057.0000, -30.864
1057.1000, -31.161
1057.2000, -31.119
1057.3000, -30.781
1057.4000, -30.467
1057.5000, -30.447
1057.6000, -30.647
1057.7000, -30.836
1057.8000, -30.839
1057.9000, -30.640
1058.0000, -30.385
1058.1000, -30.232
1058.2000, -30.252
1058.3000, -30.338
1058.4000, -30.347
1058.5000, -30.200
1058.6000, -30.043
1058.7000, -30.021
1058.8000, -30.118
1058.9000, -30.139
1059.0000, -29.896
1059.1000, -29.527
1059.2000, -29.282
1059.3000, -29.332
1059.4000, -29.640
1059.5000, -29.988
1059.6000, -30.060
1059.7000, -29.756
1059.8000, -29.387
1059.9000, -29.197
1060.0000, -29.252
1060.1000, -29.369
1060.2000, -29.328
1060.3000, -29.166
1060.4000, -29.075
1060.5000, -29.151
1060.6000, -29.358
1060.7000, -29.504
1060.8000, -29.491
1060.9000, -29.205
1061.0000, -28.822
1061.1000, -28.618
1061.2000, -28.732
1061.3000, -29.028
1061.4000, -29.187
1061.5000, -29.040
1061.6000, -28.794
1061.7000, -28.699
1061.8000, -28.766
1061.9000, -28.841
1062.0000, -28.740
1062.1000, -28.591
1062.2000, -28.508
1062.3000, -28.536
1062.4000, -28.693
1062.5000, -28.868
1062.6000, -28.908
1062.7000, -28.632
1062.8000, -28.210
1062.9000, -28.010
1063.0000, -28.154
1063.1000, -28.435
1063.2000, -28.565
1063.3000, -28.441
1063.4000, -28.194
1063.5000, -28.028
1063.6000, -28.093
1063.7000, -28.306
1063.8000, -28.479
1063.9000, -28.431
1064.0000, -28.270
1064.1000, -28.159
1064.2000, -28.219
1064.3000, -28.373
1064.4000, -28.416
1064.5000, -28.270
1064.6000, -28.011
1064.7000, -27.840
1064.8000, -27.909
1064.9000, -28.154
1065.0000, -28.403
1065.1000, -28.386
1065.2000, -28.152
1065.3000, -27.951
1065.4000, -27.847
1065.5000, -27.890
1065.6000, -27.947
1065.7000, -27.922
1065.8000, -27.821
1065.9000, -27.713
1066.0000, -27.693
1066.1000, -27.700
1066.2000, -27.718
1066.3000, -27.667
1066.4000, -27.508
1066.5000, -27.302
1066.6000, -27.238
1066.7000, -27.343
1066.8000, -27.408
1066.9000, -27.315
1067.0000, -27.171
1067.1000, -27.103
1067.2000, -27.132
1067.3000, -27.280
1067.4000, -27.458
1067.5000, -27.474
1067.6000, -27.251
1067.7000, -27.039
1067.8000, -27.060
1067.9000, -27.267
1068.0000, -27.457
1068.1000, -27.510
1068.2000, -27.508
1068.3000, -27.482
1068.4000, -27.457
1068.5000, -27.388
1068.6000, -27.310
1068.7000, -27.205
1068.8000, -27.168
1068.9000, -27.187
1069.0000, -27.362
1069.1000, -27.641
1069.2000, -27.883
1069.3000, -27.819
1069.4000, -27.585
1069.5000, -27.382
1069.6000, -27.334
1069.7000, -27.315
1069.8000, -27.242
1069.9000, -27.201
1070.0000, -27.260
1070.1000, -27.432
1070.2000, -27.584
1070.3000, -27.588
1070.4000, -27.440
1070.5000, -27.287
1070.6000, -27.156
1070.7000, -27.113
1070.8000, -27.212
1070.9000, -27.448
1071.0000, -27.643
1071.1000, -27.680
1071.2000, -27.580
1071.3000, -27.505
1071.4000, -27.487
1071.5000, -27.494
1071.6000, -27.520
1071.7000, -27.582
1071.8000, -27.689
1071.9000, -27.841
1072.0000, -28.008
1072.1000, -28.132
1072.2000, -28.184
1072.3000, -28.029
1072.4000, -27.721
1072.5000, -27.513
1072.6000, -27.572
1072.7000, -27.839
1072.8000, -27.979
1072.9000, -27.906
1073.0000, -27.822
1073.1000, -27.808
1073.2000, -27.773
1073.3000, -27.712
1073.4000, -27.694
1073.5000, -27.686
1073.6000, -27.605
1073.7000, -27.522
1073.8000, -27.618
1073.9000, -27.902
1074.0000, -28.187
1074.1000, -28.225
1074.2000, -28.008
1074.3000, -27.815
1074.4000, -27.843
1074.5000, -28.078
1074.6000, -28.191
1074.7000, -28.081
1074.8000, -27.893
1074.9000, -27.859
1075.0000, -27.978
1075.1000, -28.139
1075.2000, -28.211
1075.3000, -28.219
1075.4000, -28.245
1075.5000, -28.263
1075.6000, -28.301
1075.7000, -28.355
1075.8000, -28.421
1075.9000, -28.371
1076.0000, -28.197
1076.1000, -28.117
1076.2000, -28.184
1076.3000, -28.307
1076.4000, -28.273
1076.5000, -28.104
1076.6000, -28.043
1076.7000, -28.194
1076.8000, -28.450
1076.9000, -28.626
1077.0000, -28.812
1077.1000, -29.028
1077.2000, -29.231
1077.3000, -29.444
1077.4000, -29.875
1077.5000, -30.604
1077.6000, -31.515
1077.7000, -32.451
1077.8000, -33.222
1077.9000, -34.004
1078.0000, -34.964
1078.1000, -35.997
1078.2000, -36.837
1078.3000, -37.349
1078.4000, -37.781
1078.5000, -38.145
1078.6000, -38.388
1078.7000, -38.562
1078.8000, -38.654
1078.9000, -38.733
1079.0000, -38.751
1079.1000, -38.830
1079.2000, -38.864
1079.3000, -38.842
1079.4000, -38.834
1079.5000, -38.864
1079.6000, -38.914
1079.7000, -39.002
1079.8000, -39.117
1079.9000, -39.130
1080.0000, -39.013
1080.1000, -38.882
1080.2000, -38.841
1080.3000, -38.938
1080.4000, -39.029
1080.5000, -39.065
1080.6000, -39.095
1080.7000, -39.138
1080.8000, -39.203
1080.9000, -39.213
1081.0000, -39.163
1081.1000, -39.180
1081.2000, -39.200
1081.3000, -39.227
1081.4000, -39.135
1081.5000, -39.058
1081.6000, -39.098
1081.7000, -39.222
1081.8000, -39.278
1081.9000, -39.261
1082.0000, -39.309
1082.1000, -39.348
1082.2000, -39.368
1082.3000, -39.257
1082.4000, -39.160
1082.5000, -39.151
1082.6000, -39.227
1082.7000, -39.344
1082.8000, -39.408
1082.9000, -39.399
1083.0000, -39.311
1083.1000, -39.319
1083.2000, -39.405
1083.3000, -39.498
1083.4000, -39.536
1083.5000, -39.449
1083.6000, -39.334
1083.7000, -39.313
1083.8000, -39.405
1083.9000, -39.440
1084.0000, -39.459
1084.1000, -39.458
1084.2000, -39.434
1084.3000, -39.404
1084.4000, -39.439
1084.5000, -39.517
1084.6000, -39.508
1084.7000, -39.499
1084.8000, -39.483
1084.9000, -39.406
1085.0000, -39.383
1085.1000, -39.451
1085.2000, -39.567
1085.3000, -39.677
1085.4000, -39.705
1085.5000, -39.651
1085.6000, -39.589
1085.7000, -39.493
1085.8000, -39.440
1085.9000, -39.453
1086.0000, -39.518
1086.1000, -39.575
1086.2000, -39.648
1086.3000, -39.692
1086.4000, -39.652
1086.5000, -39.658
1086.6000, -39.650
1086.7000, -39.550
1086.8000, -39.382
1086.9000, -39.349
1087.0000, -39.505
1087.1000, -39.682
1087.2000, -39.684
1087.3000, -39.715
1087.4000, -39.736
1087.5000, -39.711
1087.6000, -39.617
1087.7000, -39.461
1087.8000, -39.418
1087.9000, -39.522
1088.0000, -39.667
1088.1000, -39.704
1088.2000, -39.559
1088.3000, -39.453
1088.4000, -39.453
1088.5000, -39.431
1088.6000, -39.347
1088.7000, -39.385
1088.8000, -39.550
1088.9000, -39.705
1089.0000, -39.724
1089.1000, -39.613
1089.2000, -39.569
1089.3000, -39.533
1089.4000, -39.429
1089.5000, -39.301
1089.6000, -39.262
1089.7000, -39.356
1089.8000, -39.522
1089.9000, -39.693
1090.0000, -39.748
1090.1000, -39.726
1090.2000, -39.608
1090.3000, -39.482
1090.4000, -39.425
1090.5000, -39.497
1090.6000, -39.619
1090.7000, -39.682
1090.8000, -39.650
1090.9000, -39.619
1091.0000, -39.534
1091.1000, -39.494
1091.2000, -39.447
1091.3000, -39.463
1091.4000, -39.502
1091.5000, -39.547
1091.6000, -39.592
1091.7000, -39.687
1091.8000, -39.689
1091.9000, -39.592
1092.0000, -39.481
1092.1000, -39.446
1092.2000, -39.399
1092.3000, -39.401
1092.4000, -39.449
1092.5000, -39.515
1092.6000, -39.579
1092.7000, -39.632
1092.8000, -39.647
1092.9000, -39.576
1093.0000, -39.536
1093.1000, -39.470
1093.2000, -39.434
1093.3000, -39.486
1093.4000, -39.580
1093.5000, -39.640
1093.6000, -39.616
1093.7000, -39.583
1093.8000, -39.579
1093.9000, -39.628
1094.0000, -39.641
1094.1000, -39.565
1094.2000, -39.537
1094.3000, -39.618
1094.4000, -39.735
1094.5000, -39.759
1094.6000, -39.670
1094.7000, -39.685
1094.8000, -39.702
1094.9000, -39.647
1095.0000, -39.561
1095.1000, -39.488
1095.2000, -39.552
1095.3000, -39.600
1095.4000, -39.598
1095.5000, -39.646
1095.6000, -39.662
1095.7000, -39.657
1095.8000, -39.639
1095.9000, -39.605
1096.0000, -39.619
1096.1000, -39.653
1096.2000, -39.630
1096.3000, -39.650
1096.4000, -39.650
1096.5000, -39.536
1096.6000, -39.445
1096.7000, -39.483
1096.8000, -39.630
1096.9000, -39.738
1097.0000, -39.769
1097.1000, -39.826
1097.2000, -39.847
1097.3000, -39.750
1097.4000, -39.596
1097.5000, -39.582
1097.6000, -39.649
1097.7000, -39.712
1097.8000, -39.669
1097.9000, -39.684
1098.0000, -39.729
1098.1000, -39.722
1098.2000, -39.706
1098.3000, -39.695
1098.4000, -39.765
1098.5000, -39.774
1098.6000, -39.796
1098.7000, -39.797
1098.8000, -39.795
1098.9000, -39.750
1099.0000, -39.700
1099.1000, -39.657
1099.2000, -39.600
1099.3000, -39.620
1099.4000, -39.701
1099.5000, -39.827
1099.6000, -39.951
1099.7000, -40.095
1099.8000, -40.145
1099.9000, -40.016
1100.0000, -39.928
1100.1000, -39.912
1100.2000, -40.013
1100.3000, -39.911
1100.4000, -39.729
1100.5000, -39.638
1100.6000, -39.724
1100.7000, -39.854
1100.8000, -39.973
1100.9000, -40.009
1101.0000, -39.992
1101.1000, -39.911
1101.2000, -39.910
1101.3000, -39.960
1101.4000, -39.988
1101.5000, -39.907
1101.6000, -39.789
1101.7000, -39.715
1101.8000, -39.753
1101.9000, -39.917
1102.0000, -40.103
1102.1000, -40.205
1102.2000, -40.221
1102.3000, -40.192
1102.4000, -40.137
1102.5000, -40.019
1102.6000, -39.901
1102.7000, -39.942
1102.8000, -40.089
1102.9000, -40.162
1103.0000, -40.219
1103.1000, -40.183
1103.2000, -40.170
1103.3000, -40.209
1103.4000, -40.111
1103.5000, -40.060
1103.6000, -40.000
1103.7000, -40.003
1103.8000, -40.043
1103.9000, -40.237
1104.0000, -40.371
1104.1000, -40.493
1104.2000, -40.530
1104.3000, -40.505
1104.4000, -40.426
1104.5000, -40.289
1104.6000, -40.159
1104.7000, -40.120
1104.8000, -40.124
1104.9000, -40.266
1105.0000, -40.386
1105.1000, -40.438
1105.2000, -40.394
1105.3000, -40.371
1105.4000, -40.409
1105.5000, -40.343
1105.6000, -40.282
1105.7000, -40.286
1105.8000, -40.358
1105.9000, -40.406
1106.0000, -40.342
1106.1000, -40.259
1106.2000, -40.198
1106.3000, -40.321
1106.4000, -40.480
1106.5000, -40.547
1106.6000, -40.573
1106.7000, -40.551
1106.8000, -40.489
1106.9000, -40.469
1107.0000, -40.477
1107.1000, -40.483
1107.2000, -40.459
1107.3000, -40.453
1107.4000, -40.342
1107.5000, -40.369
1107.6000, -40.536
1107.7000, -40.742
1107.8000, -40.835
1107.9000, -40.766
1108.0000, -40.651
1108.1000, -40.626
1108.2000, -40.686
1108.3000, -40.643
1108.4000, -40.642
1108.5000, -40.751
1108.6000, -40.844
1108.7000, -40.794
1108.8000, -40.631
1108.9000, -40.572
1109.0000, -40.626
1109.1000, -40.690
1109.2000, -40.723
1109.3000, -40.732
1109.4000, -40.737
1109.5000, -40.787
1109.6000, -40.802
1109.7000, -40.762
1109.8000, -40.803
1109.9000, -40.803
1110.0000, -40.765
1110.1000, -40.745
1110.2000, -40.764
1110.3000, -40.880
1110.4000, -40.953
1110.5000, -41.009
1110.6000, -41.040
1110.7000, -41.001
1110.8000, -40.965
1110.9000, -40.946
1111.0000, -40.907
1111.1000, -40.906
1111.2000, -40.962
1111.3000, -40.998
1111.4000, -41.014
1111.5000, -41.076
1111.6000, -41.128
1111.7000, -41.156
1111.8000, -41.087
1111.9000, -41.040
1112.0000, -40.966
1112.1000, -40.986
1112.2000, -41.034
1112.3000, -41.024
1112.4000, -41.041
1112.5000, -41.209
1112.6000, -41.339
1112.7000, -41.367
1112.8000, -41.271
1112.9000, -41.144
1113.0000, -41.076
1113.1000, -41.020
1113.2000, -41.008
1113.3000, -41.082
1113.4000, -41.231
1113.5000, -41.363
1113.6000, -41.385
1113.7000, -41.319
1113.8000, -41.289
1113.9000, -41.283
1114.0000, -41.278
1114.1000, -41.201
1114.2000, -41.056
1114.3000, -40.988
1114.4000, -41.085
1114.5000, -41.254
1114.6000, -41.396
1114.7000, -41.581
1114.8000, -41.754
1114.9000, -41.770
1115.0000, -41.564
1115.1000, -41.446
1115.2000, -41.346
1115.3000, -41.330
1115.4000, -41.349
1115.5000, -41.372
1115.6000, -41.281
1115.7000, -41.242
1115.8000, -41.407
1115.9000, -41.624
1116.0000, -41.702
1116.1000, -41.735
1116.2000, -41.833
1116.3000, -41.808
1116.4000, -41.734
1116.5000, -41.689
1116.6000, -41.666
1116.7000, -41.581
1116.8000, -41.585
1116.9000, -41.656
1117.0000, -41.808
1117.1000, -41.817
1117.2000, -41.760
1117.3000, -41.603
1117.4000, -41.481
1117.5000, -41.437
1117.6000, -41.490
1117.7000, -41.497
1117.8000, -41.560
1117.9000, -41.788
1118.0000, -42.018
1118.1000, -42.069
1118.2000, -41.891
1118.3000, -41.684
1118.4000, -41.655
1118.5000, -41.764
1118.6000, -41.843
1118.7000, -41.846
1118.8000, -41.826
1118.9000, -41.896
1119.0000, -42.025
1119.1000, -42.113
1119.2000, -42.082
1119.3000, -41.912
1119.4000, -41.704
1119.5000, -41.749
1119.6000, -41.803
1119.7000, -41.764
1119.8000, -41.699
1119.9000, -42.044
1120.0000, -42.463
1120.1000, -42.475
1120.2000, -42.158
1120.3000, -41.835
1120.4000, -41.746
1120.5000, -41.632
1120.6000, -41.613
1120.7000, -41.627
1120.8000, -41.686
1120.9000, -42.077
1121.0000, -42.421
1121.1000, -42.274
1121.2000, -41.856
1121.3000, -41.689
1121.4000, -41.826
1121.5000, -42.214
1121.6000, -42.428
1121.7000, -42.245
1121.8000, -41.903
1121.9000, -42.011
1122.0000, -42.495
1122.1000, -42.847
1122.2000, -42.641
1122.3000, -42.566
1122.4000, -42.573
1122.5000, -42.326
1122.6000, -41.875
1122.7000, -41.676
1122.8000, -41.723
1122.9000, -41.729
1123.0000, -41.704
1123.1000, -41.801
1123.2000, -42.169
1123.3000, -42.652
1123.4000, -43.013
1123.5000, -42.774
1123.6000, -42.264
1123.7000, -41.873
1123.8000, -41.760
1123.9000, -41.755
1124.0000, -41.767
1124.1000, -41.747
1124.2000, -41.700
1124.3000, -41.762
1124.4000, -41.794
1124.5000, -41.865
1124.6000, -41.955
1124.7000, -41.977
1124.8000, -41.958
1124.9000, -42.312
1125.0000, -42.885
1125.1000, -43.106
1125.2000, -42.830
1125.3000, -42.621
1125.4000, -42.555
1125.5000, -42.306
1125.6000, -42.083
1125.7000, -42.070
1125.8000, -42.320
1125.9000, -42.366
1126.0000, -42.111
1126.1000, -41.871
1126.2000, -41.780
1126.3000, -41.797
1126.4000, -41.950
1126.5000, -41.994
1126.6000, -42.017
1126.7000, -41.983
1126.8000, -42.014
1126.9000, -42.099
1127.0000, -42.160
1127.1000, -42.122
1127.2000, -42.003
1127.3000, -42.125
1127.4000, -42.564
1127.5000, -42.889
1127.6000, -42.786
1127.7000, -42.314
1127.8000, -42.054
1127.9000, -41.911
1128.0000, -41.892
1128.1000, -42.105
1128.2000, -42.207
1128.3000, -42.061
1128.4000, -41.919
1128.5000, -42.056
1128.6000, -42.297
1128.7000, -42.368
1128.8000, -42.244
1128.9000, -42.088
1129.0000, -41.936
1129.1000, -41.826
1129.2000, -42.048
1129.3000, -42.610
1129.4000, -42.879
1129.5000, -42.554
1129.6000, -42.210
1129.7000, -42.169
1129.8000, -42.179
1129.9000, -42.062
1130.0000, -42.020
1130.1000, -42.062
1130.2000, -42.011
1130.3000, -41.940
1130.4000, -42.006
1130.5000, -42.027
1130.6000, -41.949
1130.7000, -41.904
1130.8000, -41.929
1130.9000, -42.036
1131.0000, -42.082
1131.1000, -42.057
1131.2000, -41.959
1131.3000, -41.884
1131.4000, -41.883
1131.5000, -41.889
1131.6000, -41.976
1131.7000, -42.060
1131.8000, -42.015
1131.9000, -42.051
1132.0000, -42.243
1132.1000, -42.374
1132.2000, -42.206
1132.3000, -41.976
1132.4000, -41.903
1132.5000, -41.951
1132.6000, -41.981
1132.7000, -42.059
1132.8000, -42.217
1132.9000, -42.401
1133.0000, -42.382
1133.1000, -42.370
1133.2000, -42.406
1133.3000, -42.302
1133.4000, -42.089
1133.5000, -41.914
1133.6000, -42.148
1133.7000, -42.491
1133.8000, -42.553
1133.9000, -42.265
1134.0000, -42.187
1134.1000, -42.458
1134.2000, -43.101
1134.3000, -43.548
1134.4000, -43.696
1134.5000, -43.562
1134.6000, -43.191
1134.7000, -42.669
1134.8000, -42.460
1134.9000, -42.342
1135.0000, -42.117
1135.1000, -41.917
1135.2000, -41.861
1135.3000, -41.975
1135.4000, -41.949
1135.5000, -41.953
1135.6000, -42.396
1135.7000, -43.068
1135.8000, -43.035
1135.9000, -42.342
1136.0000, -41.935
1136.1000, -41.874
1136.2000, -41.870
1136.3000, -41.897
1136.4000, -42.010
1136.5000, -42.020
1136.6000, -42.020
1136.7000, -41.918
1136.8000, -41.978
1136.9000, -42.044
1137.0000, -41.923
1137.1000, -41.879
1137.2000, -42.103
1137.3000, -42.251
1137.4000, -42.193
1137.5000, -42.024
1137.6000, -42.040
1137.7000, -41.996
1137.8000, -41.848
1137.9000, -41.773
1138.0000, -41.954
1138.1000, -42.226
1138.2000, -42.432
1138.3000, -42.348
1138.4000, -42.145
1138.5000, -42.028
1138.6000, -41.883
1138.7000, -41.843
1138.8000, -41.838
1138.9000, -41.932
1139.0000, -41.952
1139.1000, -41.831
1139.2000, -41.794
1139.3000, -41.822
1139.4000, -41.972
1139.5000, -42.106
1139.6000, -42.264
1139.7000, -42.276
1139.8000, -42.121
1139.9000, -41.836
1140.0000, -41.762
1140.1000, -41.842
1140.2000, -41.928
1140.3000, -41.977
1140.4000, -42.250
1140.5000, -42.586
1140.6000, -42.488
1140.7000, -42.034
1140.8000, -41.907
1140.9000, -42.057
1141.0000, -42.221
1141.1000, -42.350
1141.2000, -42.337
1141.3000, -42.079
1141.4000, -41.736
1141.5000, -41.670
1141.6000, -41.862
1141.7000, -42.124
1141.8000, -42.286
1141.9000, -42.267
1142.0000, -42.268
1142.1000, -42.065
1142.2000, -41.952
1142.3000, -41.816
1142.4000, -41.899
1142.5000, -41.923
1142.6000, -41.962
1142.7000, -42.039
1142.8000, -42.127
1142.9000, -42.204
1143.0000, -42.205
1143.1000, -42.125
1143.2000, -42.117
1143.3000, -42.228
1143.4000, -42.271
1143.5000, -42.136
1143.6000, -41.956
1143.7000, -42.076
1143.8000, -42.253
1143.9000, -42.697
1144.0000, -42.885
1144.1000, -42.655
1144.2000, -42.255
1144.3000, -42.024
1144.4000, -42.048
1144.5000, -42.157
1144.6000, -42.255
1144.7000, -42.292
1144.8000, -42.237
1144.9000, -42.277
1145.0000, -42.439
1145.1000, -42.463
1145.2000, -42.276
1145.3000, -42.012
1145.4000, -42.021
1145.5000, -42.182
1145.6000, -42.290
1145.7000, -42.211
1145.8000, -42.061
1145.9000, -42.005
1146.0000, -41.972
1146.1000, -42.208
1146.2000, -42.585
1146.3000, -42.901
1146.4000, -42.696
1146.5000, -42.317
1146.6000, -42.179
1146.7000, -42.198
1146.8000, -42.240
1146.9000, -42.225
1147.0000, -42.346
1147.1000, -42.388
1147.2000, -42.494
1147.3000, -42.478
1147.4000, -42.216
1147.5000, -42.066
1147.6000, -42.101
1147.7000, -42.148
1147.8000, -42.132
1147.9000, -41.989
1148.0000, -41.912
1148.1000, -42.086
1148.2000, -42.111
1148.3000, -42.210
1148.4000, -42.377
1148.5000, -42.628
1148.6000, -42.441
1148.7000, -42.213
1148.8000, -42.012
1148.9000, -42.032
1149.0000, -42.013
1149.1000, -42.087
1149.2000, -42.275
1149.3000, -42.561
1149.4000, -42.828
1149.5000, -42.837
1149.6000, -42.554
1149.7000, -42.209
1149.8000, -42.076
1149.9000, -42.047
1150.0000, -42.077
1150.1000, -42.191
1150.2000, -42.271
1150.3000, -42.276
1150.4000, -42.300
1150.5000, -42.332
1150.6000, -42.288
1150.7000, -42.150
1150.8000, -42.065
1150.9000, -42.161
1151.0000, -42.173
1151.1000, -42.178
1151.2000, -42.123
1151.3000, -42.109
1151.4000, -42.253
1151.5000, -42.440
1151.6000, -42.776
1151.7000, -42.689
1151.8000, -42.418
1151.9000, -42.113
1152.0000, -42.161
1152.1000, -42.302
1152.2000, -42.775
1152.3000, -43.053
1152.4000, -42.771
1152.5000, -42.444
1152.6000, -42.260
1152.7000, -42.318
1152.8000, -42.243
1152.9000, -42.311
1153.0000, -42.312
1153.1000, -42.452
1153.2000, -42.387
1153.3000, -42.382
1153.4000, -42.263
1153.5000, -42.175
1153.6000, -42.383
1153.7000, -42.514
1153.8000, -42.518
1153.9000, -42.500
1154.0000, -42.536
1154.1000, -42.463
1154.2000, -42.349
1154.3000, -42.257
1154.4000, -42.250
1154.5000, -42.436
1154.6000, -42.557
1154.7000, -42.540
1154.8000, -42.317
1154.9000, -42.289
1155.0000, -42.353
1155.1000, -42.376
1155.2000, -42.300
1155.3000, -42.539
1155.4000, -42.653
1155.5000, -42.561
1155.6000, -42.346
1155.7000, -42.338
1155.8000, -42.531
1155.9000, -42.719
1156.0000, -42.725
1156.1000, -42.598
1156.2000, -42.432
1156.3000, -42.192
1156.4000, -42.132
1156.5000, -42.230
1156.6000, -42.442
1156.7000, -42.549
1156.8000, -42.625
1156.9000, -42.714
1157.0000, -42.700
1157.1000, -42.670
1157.2000, -42.550
1157.3000, -42.583
1157.4000, -42.644
1157.5000, -42.706
1157.6000, -42.458
1157.7000, -42.256
1157.8000, -42.358
1157.9000, -42.496
1158.0000, -42.832
1158.1000, -42.635
1158.2000, -42.618
1158.3000, -42.476
1158.4000, -42.757
1158.5000, -42.791
1158.6000, -42.806
1158.7000, -42.787
1158.8000, -42.694
1158.9000, -42.607
1159.0000, -42.479
1159.1000, -42.616
1159.2000, -42.742
1159.3000, -42.768
1159.4000, -42.678
1159.5000, -42.582
1159.6000, -42.654
1159.7000, -42.705
1159.8000, -42.709
1159.9000, -42.632
1160.0000, -42.763
1160.1000, -42.755
1160.2000, -42.711
1160.3000, -42.568
1160.4000, -42.586
1160.5000, -42.683
1160.6000, -42.774
1160.7000, -42.635
1160.8000, -42.573
1160.9000, -42.522
1161.0000, -42.507
1161.1000, -42.768
1161.2000, -42.818
1161.3000, -42.896
1161.4000, -42.987
1161.5000, -43.102
1161.6000, -42.802
1161.7000, -42.712
1161.8000, -42.561
1161.9000, -42.426
1162.0000, -42.545
1162.1000, -42.379
1162.2000, -42.500
1162.3000, -42.846
1162.4000, -43.146
1162.5000, -43.181
1162.6000, -42.951
1162.7000, -42.836
1162.8000, -42.890
1162.9000, -42.860
1163.0000, -42.635
1163.1000, -42.594
1163.2000, -42.660
1163.3000, -42.793
1163.4000, -42.849
1163.5000, -42.932
1163.6000, -42.944
1163.7000, -42.954
1163.8000, -42.900
1163.9000, -42.924
1164.0000, -42.964
1164.1000, -42.736
1164.2000, -42.695
1164.3000, -42.871
1164.4000, -42.939
1164.5000, -42.942
1164.6000, -42.865
1164.7000, -42.904
1164.8000, -42.955
1164.9000, -42.954
1165.0000, -42.742
1165.1000, -42.787
1165.2000, -42.864
1165.3000, -42.890
1165.4000, -42.882
1165.5000, -42.994
1165.6000, -43.113
1165.7000, -43.136
1165.8000, -42.885
1165.9000, -42.792
1166.0000, -42.933
1166.1000, -42.916
1166.2000, -42.755
1166.3000, -42.586
1166.4000, -42.712
1166.5000, -42.860
1166.6000, -43.042
1166.7000, -43.199
1166.8000, -43.431
1166.9000, -43.528
1167.0000, -43.053
1167.1000, -42.683
1167.2000, -42.718
1167.3000, -42.703
1167.4000, -42.832
1167.5000, -42.846
1167.6000, -42.930
1167.7000, -42.872
1167.8000, -42.989
1167.9000, -43.082
1168.0000, -43.301
1168.1000, -43.323
1168.2000, -43.057
1168.3000, -42.719
1168.4000, -42.865
1168.5000, -42.664
1168.6000, -42.860
1168.7000, -42.725
1168.8000, -42.819
1168.9000, -43.002
1169.0000, -43.075
1169.1000, -42.852
1169.2000, -42.685
1169.3000, -42.779
1169.4000, -42.879
1169.5000, -43.128
1169.6000, -43.275
1169.7000, -43.235
1169.8000, -42.959
1169.9000, -42.735
1170.0000, -42.683
1170.1000, -42.631
1170.2000, -42.802
1170.3000, -42.655
1170.4000, -42.954
1170.5000, -42.764
1170.6000, -42.772
1170.7000, -42.828
1170.8000, -42.971
1170.9000, -43.064
1171.0000, -42.891
1171.1000, -42.850
1171.2000, -42.574
1171.3000, -42.862
1171.4000, -42.829
1171.5000, -42.773
1171.6000, -42.582
1171.7000, -42.754
1171.8000, -42.533
1171.9000, -42.473
1172.0000, -42.756
1172.1000, -42.445
1172.2000, -42.832
1172.3000, -42.713
1172.4000, -42.773
1172.5000, -42.934
1172.6000, -42.415
1172.7000, -42.615
1172.8000, -42.409
1172.9000, -42.624
1173.0000, -42.248
1173.1000, -42.646
1173.2000, -42.283
1173.3000, -42.325
1173.4000, -42.674
1173.5000, -42.480
1173.6000, -42.668
1173.7000, -42.464
1173.8000, -42.479
1173.9000, -42.074
1174.0000, -42.579
1174.1000, -42.427
1174.2000, -42.151
1174.3000, -42.478
1174.4000, -41.932
1174.5000, -42.429
1174.6000, -42.075
1174.7000, -42.322
1174.8000, -42.142
1174.9000, -42.455
1175.0000, -42.368
1175.1000, -42.074
1175.2000, -42.532
1175.3000, -42.273
1175.4000, -42.425
1175.5000, -42.256
1175.6000, -42.121
1175.7000, -41.838
1175.8000, -42.084
1175.9000, -41.902
1176.0000, -41.923
1176.1000, -42.248
1176.2000, -42.217
1176.3000, -42.472
1176.4000, -42.499
1176.5000, -42.257
1176.6000, -42.105
1176.7000, -42.026
1176.8000, -41.912
1176.9000, -41.730
1177.0000, -41.802
1177.1000, -42.012
1177.2000, -42.169
1177.3000, -41.805
1177.4000, -42.074
1177.5000, -41.985
1177.6000, -42.028
1177.7000, -42.476
1177.8000, -41.710
1177.9000, -41.874
1178.0000, -41.921
1178.1000, -41.876
1178.2000, -41.771
1178.3000, -41.656
1178.4000, -42.006
1178.5000, -41.786
1178.6000, -42.366
1178.7000, -42.037
1178.8000, -41.512
1178.9000, -41.690
1179.0000, -42.123
1179.1000, -41.932
1179.2000, -41.769
1179.3000, -41.942
1179.4000, -41.879
1179.5000, -41.900
1179.6000, -41.559
1179.7000, -41.766
1179.8000, -41.661
1179.9000, -41.796
1180.0000, -41.740
1180.1000, -41.673
1180.2000, -41.470
1180.3000, -41.832
1180.4000, -41.556
1180.5000, -41.647
1180.6000, -41.742
1180.7000, -41.609
1180.8000, -42.064
1180.9000, -41.733
1181.0000, -41.570
1181.1000, -41.576
1181.2000, -41.669
1181.3000, -41.412
1181.4000, -41.665
1181.5000, -41.677
1181.6000, -41.023
1181.7000, -41.947
1181.8000, -41.212
1181.9000, -41.433
1182.0000, -41.752
1182.1000, -41.851
1182.2000, -41.967
1182.3000, -41.120
1182.4000, -41.598
1182.5000, -41.133
1182.6000, -41.341
1182.7000, -41.672
1182.8000, -41.480
1182.9000, -41.315
1183.0000, -40.961
1183.1000, -42.185
1183.2000, -41.257
1183.3000, -41.414
1183.4000, -41.040
1183.5000, -41.468
1183.6000, -41.742
1183.7000, -41.026
1183.8000, -41.672
1183.9000, -40.833
1184.0000, -41.498
1184.1000, -41.081
1184.2000, -41.456
1184.3000, -41.740
1184.4000, -41.168
1184.5000, -41.516
1184.6000, -41.300
1184.7000, -41.872
1184.8000, -40.954
1184.9000, -41.123
1185.0000, -41.556
1185.1000, -41.024
1185.2000, -41.490
1185.3000, -41.003
1185.4000, -41.195
1185.5000, -40.776
1185.6000, -41.066
1185.7000, -41.150
1185.8000, -40.892
1185.9000, -41.404
1186.0000, -41.066
1186.1000, -41.467
1186.2000, -41.257
1186.3000, -41.005
1186.4000, -41.278
1186.5000, -40.801
1186.6000, -41.305
1186.7000, -40.727
1186.8000, -41.106
1186.9000, -40.695
1187.0000, -40.708
1187.1000, -40.578
1187.2000, -41.012
1187.3000, -41.254
1187.4000, -40.998
1187.5000, -41.073
1187.6000, -40.825
1187.7000, -40.797
1187.8000, -40.984
1187.9000, -40.455
1188.0000, -41.135
1188.1000, -40.530
1188.2000, -40.788
1188.3000, -40.555
1188.4000, -41.089
1188.5000, -40.843
1188.6000, -40.863
1188.7000, -40.807
1188.8000, -40.741
1188.9000, -41.033
1189.0000, -40.897
1189.1000, -40.193
1189.2000, -41.009
1189.3000, -40.849
1189.4000, -40.318
1189.5000, -41.385
1189.6000, -40.708
1189.7000, -40.790
1189.8000, -40.883
1189.9000, -40.963
1190.0000, -40.885
1190.1000, -40.453
1190.2000, -40.898
1190.3000, -40.386
1190.4000, -40.646
1190.5000, -40.801
1190.6000, -40.719
1190.7000, -40.548
1190.8000, -40.302
1190.9000, -40.500
1191.0000, -40.152
1191.1000, -40.450
1191.2000, -40.610
1191.3000, -40.032
1191.4000, -41.273
1191.5000, -40.221
1191.6000, -41.202
1191.7000, -40.446
1191.8000, -40.382
1191.9000, -40.530
1192.0000, -40.210
1192.1000, -40.129
1192.2000, -39.770
1192.3000, -40.491
1192.4000, -39.649
1192.5000, -40.640
1192.6000, -40.516
1192.7000, -40.188
1192.8000, -41.192
1192.9000, -40.582
1193.0000, -40.393
1193.1000, -40.344
1193.2000, -40.323
1193.3000, -40.708
1193.4000, -40.036
1193.5000, -40.241
1193.6000, -40.151
1193.7000, -40.315
1193.8000, -40.106
1193.9000, -40.143
1194.0000, -40.374
1194.1000, -39.935
1194.2000, -40.445
1194.3000, -40.465
1194.4000, -40.065
1194.5000, -39.947
1194.6000, -40.198
1194.7000, -40.331
1194.8000, -39.809
1194.9000, -40.147
1195.0000, -40.610
1195.1000, -40.027
1195.2000, -39.590
1195.3000, -39.903
1195.4000, -40.140
1195.5000, -40.658
1195.6000, -40.357
1195.7000, -40.203
1195.8000, -39.522
1195.9000, -40.187
1196.0000, -39.958
1196.1000, -39.977
1196.2000, -39.799
1196.3000, -40.122
1196.4000, -39.789
1196.5000, -39.669
1196.6000, -39.798
1196.7000, -40.106
1196.8000, -39.856
1196.9000, -40.260
1197.0000, -39.529
1197.1000, -39.954
1197.2000, -40.118
1197.3000, -39.670
1197.4000, -40.301
1197.5000, -39.318
1197.6000, -39.817
1197.7000, -39.937
1197.8000, -39.316
1197.9000, -40.723
1198.0000, -39.360
1198.1000, -39.900
1198.2000, -39.542
1198.3000, -39.326
1198.4000, -40.576
1198.5000, -39.120
1198.6000, -39.929
1198.7000, -39.902
1198.8000, -40.148
1198.9000, -39.500
1199.0000, -40.309
1199.1000, -39.437
1199.2000, -39.630
1199.3000, -40.516
1199.4000, -39.323
1199.5000, -39.883
1199.6000, -39.451
1199.7000, -39.440
1199.8000, -39.769
1199.9000, -39.174
1200.0000, -39.546
